timestamp,acc_x,acc_y,acc_z,gyr_x,gyr_y,gyr_z
2024-03-11 10:40:54.932422598,-17.155067443847656,-23.809524536132812,975.2747802734375,0.1373291015625,-0.0572204552590847,0.072479248046875
2024-03-11 10:40:54.943773900,-20.390722274780273,-32.35653305053711,982.1734619140625,0.064849853515625,-0.1144409105181694,-0.12969970703125
2024-03-11 10:40:55.199596539,-12.63736343383789,-26.923078536987305,980.9524536132812,0.0038146970327943563,0.0038146970327943563,0.152587890625
2024-03-11 10:40:55.199878777,-12.63736343383789,-26.923078536987305,980.9524536132812,0.0038146970327943563,0.0038146970327943563,0.152587890625
2024-03-11 10:40:55.199960918,-14.04151439666748,-29.059829711914062,981.5629272460938,0.0,0.1029968187212944,0.0991821214556694
2024-03-11 10:40:55.200214410,-13.797314643859863,-25.152626037597656,982.3565673828125,0.1373291015625,-0.2059936374425888,0.019073486328125
2024-03-11 10:40:55.200585342,-13.797314643859863,-25.152626037597656,982.3565673828125,0.1373291015625,-0.2059936374425888,0.019073486328125
2024-03-11 10:40:55.209622025,-13.308914184570312,-24.420024871826172,985.6532592773438,-0.1220703050494194,-0.1907348483800888,0.0953674241900444
2024-03-11 10:40:55.209648302,-11.294261932373047,-30.280832290649414,979.853515625,0.1678466647863388,0.011444090865552425,-0.1602172702550888
2024-03-11 10:40:55.209669829,-11.294261932373047,-30.280832290649414,979.853515625,0.1678466647863388,0.011444090865552425,-0.1602172702550888
2024-03-11 10:40:55.209691592,-11.538461685180664,-27.35042953491211,985.9585571289062,0.0495910607278347,-0.0457763634622097,0.2479553073644638
2024-03-11 10:40:55.209714022,-25.030527114868164,-23.076923370361328,985.2869873046875,-0.1029968187212944,0.03051757626235485,0.1945495456457138
2024-03-11 10:40:55.209730358,-25.030527114868164,-23.076923370361328,985.2869873046875,-0.1029968187212944,0.03051757626235485,0.1945495456457138
2024-03-11 10:40:55.209746500,-18.131868362426758,-28.26618003845215,978.5714721679688,0.0038146970327943563,0.011444090865552425,0.1029968187212944
2024-03-11 10:40:55.209763847,-18.131868362426758,-28.26618003845215,978.5714721679688,0.0038146970327943563,0.011444090865552425,0.1029968187212944
2024-03-11 10:40:55.209785244,-13.308914184570312,-28.93773078918457,978.5104370117188,-0.1182556077837944,0.0419616661965847,-0.0877380296587944
2024-03-11 10:40:55.209806686,-13.308914184570312,-28.93773078918457,978.5104370117188,-0.1182556077837944,0.0419616661965847,-0.0877380296587944
2024-03-11 10:40:55.214182847,-14.590965270996094,-29.609281539916992,988.0342407226562,0.0877380296587944,-0.02288818173110485,0.03051757626235485
2024-03-11 10:40:55.224450348,-18.131868362426758,-22.22222328186035,981.0134887695312,-0.0762939453125,-0.011444090865552425,-0.0534057579934597
2024-03-11 10:40:55.234765436,-18.131868362426758,-22.22222328186035,981.0134887695312,-0.0762939453125,-0.011444090865552425,-0.0534057579934597
2024-03-11 10:40:55.244998039,-15.9951171875,-21.123321533203125,986.3858642578125,0.0991821214556694,0.0419616661965847,0.1678466647863388
2024-03-11 10:40:55.255168127,-14.285715103149414,-26.4957275390625,984.2491455078125,-0.02670287899672985,0.12969970703125,-0.0038146970327943563
2024-03-11 10:40:55.265396085,-14.285715103149414,-26.4957275390625,984.2491455078125,-0.02670287899672985,0.12969970703125,-0.0038146970327943563
2024-03-11 10:40:55.275682716,-12.7594633102417,-24.420024871826172,982.2344970703125,-0.1106262132525444,0.0495910607278347,0.072479248046875
2024-03-11 10:40:55.285778987,-12.7594633102417,-24.420024871826172,982.2344970703125,-0.1106262132525444,0.0495910607278347,0.072479248046875
2024-03-11 10:40:55.296136746,-19.10866928100586,-29.54823112487793,984.3101806640625,0.0457763634622097,0.0953674241900444,0.03051757626235485
2024-03-11 10:40:55.306542748,-19.10866928100586,-29.54823112487793,984.3101806640625,0.0457763634622097,0.0953674241900444,0.03051757626235485
2024-03-11 10:40:55.316836172,-16.727718353271484,-25.091575622558594,980.0977172851562,0.06866455078125,0.034332275390625,0.133514404296875
2024-03-11 10:40:55.327212666,-14.774115562438965,-24.29792594909668,983.6386108398438,-0.293731689453125,0.0762939453125,0.1106262132525444
2024-03-11 10:40:55.337621716,-14.774115562438965,-24.29792594909668,983.6386108398438,-0.293731689453125,0.0762939453125,0.1106262132525444
2024-03-11 10:40:55.348016331,-12.087912559509277,-27.96092987060547,983.6386108398438,-0.1754760593175888,0.011444090865552425,-0.1983642429113388
2024-03-11 10:40:55.358445644,-12.087912559509277,-27.96092987060547,983.6386108398438,-0.1754760593175888,0.011444090865552425,-0.1983642429113388
2024-03-11 10:40:55.368911877,-13.492064476013184,-26.739927291870117,979.1820068359375,0.06866455078125,-0.133514404296875,0.034332275390625
2024-03-11 10:40:55.379053892,-13.492064476013184,-26.739927291870117,979.1820068359375,0.06866455078125,-0.133514404296875,0.034332275390625
2024-03-11 10:40:55.392542876,-13.186814308166504,-27.96092987060547,980.0366821289062,0.015258788131177425,0.14495849609375,-0.06866455078125
2024-03-11 10:40:55.404666202,-13.186814308166504,-27.96092987060547,980.0366821289062,0.015258788131177425,0.14495849609375,-0.06866455078125
2024-03-11 10:40:55.414808580,-18.74237060546875,-26.739927291870117,992.735107421875,0.064849853515625,-0.152587890625,0.1220703050494194
2024-03-11 10:40:55.424991473,-18.74237060546875,-26.739927291870117,992.735107421875,0.064849853515625,-0.152587890625,0.1220703050494194
2024-03-11 10:40:55.435252928,-22.46642303466797,-33.9438362121582,976.6178588867188,0.02670287899672985,0.1068115159869194,-0.064849853515625
2024-03-11 10:40:55.446972759,-22.46642303466797,-33.9438362121582,976.6178588867188,0.02670287899672985,0.1068115159869194,-0.064849853515625
2024-03-11 10:40:55.457100242,-16.9719181060791,-29.54823112487793,979.1820068359375,0.03814697265625,0.0495910607278347,-0.0419616661965847
2024-03-11 10:40:55.467415043,-16.9719181060791,-29.54823112487793,979.1820068359375,0.03814697265625,0.0495910607278347,-0.0419616661965847
2024-03-11 10:40:55.477675579,-16.849817276000977,-23.931625366210938,983.69970703125,0.2403259128332138,0.0762939453125,-0.0534057579934597
2024-03-11 10:40:55.487784448,-16.849817276000977,-23.931625366210938,983.69970703125,0.2403259128332138,0.0762939453125,-0.0534057579934597
2024-03-11 10:40:55.497950281,-8.79120922088623,-17.58241844177246,978.4494018554688,0.0457763634622097,0.064849853515625,0.0762939453125
2024-03-11 10:40:55.508225281,-18.19291877746582,-21.916973114013672,978.2052001953125,0.1869201511144638,-0.0839233323931694,-0.019073486328125
2024-03-11 10:40:55.518563939,-18.19291877746582,-21.916973114013672,978.2052001953125,0.1869201511144638,-0.0839233323931694,-0.019073486328125
2024-03-11 10:40:55.528794906,-13.431014060974121,-22.77167320251465,983.7607421875,0.1068115159869194,-0.011444090865552425,0.0610351525247097
2024-03-11 10:40:55.538932851,-13.431014060974121,-22.77167320251465,983.7607421875,0.1068115159869194,-0.011444090865552425,0.0610351525247097
2024-03-11 10:40:55.549357643,-12.45421314239502,-28.144079208374023,980.5861206054688,0.0915527269244194,-0.064849853515625,-0.0953674241900444
2024-03-11 10:40:55.559552277,-12.332113265991211,-24.358976364135742,980.2808837890625,0.141143798828125,0.156402587890625,-0.06866455078125
2024-03-11 10:40:55.569880291,-12.332113265991211,-24.358976364135742,980.2808837890625,0.141143798828125,0.156402587890625,-0.06866455078125
2024-03-11 10:40:55.580267081,-12.332113265991211,-27.228328704833984,981.9292602539062,0.125885009765625,-0.1373291015625,0.2250671237707138
2024-03-11 10:40:55.590608921,-12.332113265991211,-27.228328704833984,981.9292602539062,0.125885009765625,-0.1373291015625,0.2250671237707138
2024-03-11 10:40:55.600813809,-17.27716827392578,-25.641027450561523,973.0769653320312,0.0419616661965847,0.0839233323931694,0.2441406100988388
2024-03-11 10:40:55.610883474,-13.919414520263672,-28.815629959106445,981.0745239257812,-0.0038146970327943563,-0.03051757626235485,0.1182556077837944
2024-03-11 10:40:55.621294971,-13.919414520263672,-28.815629959106445,981.0745239257812,-0.0038146970327943563,-0.03051757626235485,0.1182556077837944
2024-03-11 10:40:55.631261954,-12.210012435913086,-29.365081787109375,981.6239624023438,0.2593994140625,-0.26702880859375,0.156402587890625
2024-03-11 10:40:55.643912291,-12.210012435913086,-29.365081787109375,981.6239624023438,0.2593994140625,-0.26702880859375,0.156402587890625
2024-03-11 10:40:55.654194456,-9.40170955657959,-29.24298095703125,977.3504638671875,0.03051757626235485,0.034332275390625,-0.0419616661965847
2024-03-11 10:40:55.664480396,-9.40170955657959,-29.24298095703125,977.3504638671875,0.03051757626235485,0.034332275390625,-0.0419616661965847
2024-03-11 10:40:55.674760198,-23.74847412109375,-23.68742561340332,979.4262084960938,0.1220703050494194,0.0419616661965847,-0.0457763634622097
2024-03-11 10:40:55.684925865,-19.78022003173828,-26.984128952026367,984.9817504882812,0.0419616661965847,-0.011444090865552425,-0.0038146970327943563
2024-03-11 10:40:55.695175415,-19.78022003173828,-26.984128952026367,984.9817504882812,0.0419616661965847,-0.011444090865552425,-0.0038146970327943563
2024-03-11 10:40:55.705502453,-9.279609680175781,-34.371185302734375,979.2430419921875,0.02288818173110485,-0.011444090865552425,-0.1029968187212944
2024-03-11 10:40:55.715710516,-9.279609680175781,-34.371185302734375,979.2430419921875,0.02288818173110485,-0.011444090865552425,-0.1029968187212944
2024-03-11 10:40:55.725774589,-12.332113265991211,-32.17338562011719,977.5946655273438,0.1678466647863388,-0.1220703050494194,0.0915527269244194
2024-03-11 10:40:55.737823978,-12.332113265991211,-32.17338562011719,977.5946655273438,0.1678466647863388,-0.1220703050494194,0.0915527269244194
2024-03-11 10:40:55.748019669,-13.125763893127441,-24.236875534057617,983.1502075195312,-0.1220703050494194,0.0839233323931694,-0.015258788131177425
2024-03-11 10:40:55.758207308,-13.125763893127441,-24.236875534057617,983.1502075195312,-0.1220703050494194,0.0839233323931694,-0.015258788131177425
2024-03-11 10:40:55.768436451,-19.78022003173828,-23.99267578125,985.1038208007812,-0.019073486328125,-0.0038146970327943563,-0.06866455078125
2024-03-11 10:40:55.778605446,-19.78022003173828,-23.99267578125,985.1038208007812,-0.019073486328125,-0.0038146970327943563,-0.06866455078125
2024-03-11 10:40:55.789738065,-19.169719696044922,-31.929183959960938,981.1966552734375,0.0953674241900444,0.1220703050494194,0.0915527269244194
2024-03-11 10:40:55.799875613,-19.169719696044922,-31.929183959960938,981.1966552734375,0.0953674241900444,0.1220703050494194,0.0915527269244194
2024-03-11 10:40:55.810123173,-18.437118530273438,-29.914531707763672,984.4323120117188,-0.0839233323931694,-0.0457763634622097,0.0038146970327943563
2024-03-11 10:40:55.820340591,-16.91086769104004,-21.611722946166992,979.3040771484375,-0.011444090865552425,0.0495910607278347,0.1029968187212944
2024-03-11 10:40:55.830556656,-16.91086769104004,-21.611722946166992,979.3040771484375,-0.011444090865552425,0.0495910607278347,0.1029968187212944
2024-03-11 10:40:55.840979737,-14.652015686035156,-29.365081787109375,981.74609375,0.2098083347082138,0.03051757626235485,-0.0534057579934597
2024-03-11 10:40:55.851420772,-14.652015686035156,-29.365081787109375,981.74609375,0.2098083347082138,0.03051757626235485,-0.0534057579934597
2024-03-11 10:40:55.861788153,-8.30280876159668,-26.007328033447266,985.9585571289062,0.308990478515625,-0.0419616661965847,0.0915527269244194
2024-03-11 10:40:55.872151109,-8.30280876159668,-26.007328033447266,985.9585571289062,0.308990478515625,-0.0419616661965847,0.0915527269244194
2024-03-11 10:40:55.882433124,-18.19291877746582,-23.870574951171875,983.3944091796875,0.072479248046875,-0.0572204552590847,0.1106262132525444
2024-03-11 10:40:55.895467000,-13.431014060974121,-22.649574279785156,983.4555053710938,-0.141143798828125,-0.1144409105181694,0.141143798828125
2024-03-11 10:40:55.905586467,-13.431014060974121,-22.649574279785156,983.4555053710938,-0.141143798828125,-0.1144409105181694,0.141143798828125
2024-03-11 10:40:55.915759652,-8.60805892944336,-25.091575622558594,981.5629272460938,0.0801086351275444,-0.015258788131177425,0.1220703050494194
2024-03-11 10:40:55.925976754,-8.60805892944336,-25.091575622558594,981.5629272460938,0.0801086351275444,-0.015258788131177425,0.1220703050494194
2024-03-11 10:40:55.936263574,-21.428571701049805,-20.818071365356445,976.4957885742188,0.064849853515625,0.0419616661965847,-0.0610351525247097
2024-03-11 10:40:55.946471948,-14.896215438842773,-26.007328033447266,979.2430419921875,-0.141143798828125,0.1220703050494194,0.0915527269244194
2024-03-11 10:40:55.956634005,-14.896215438842773,-26.007328033447266,979.2430419921875,-0.141143798828125,0.1220703050494194,0.0915527269244194
2024-03-11 10:40:55.966952963,-14.957265853881836,-31.379732131958008,981.1966552734375,-0.0534057579934597,0.2250671237707138,-0.019073486328125
2024-03-11 10:40:55.977378526,-14.957265853881836,-31.379732131958008,981.1966552734375,-0.0534057579934597,0.2250671237707138,-0.019073486328125
2024-03-11 10:40:55.987474150,-12.881563186645508,-24.786325454711914,992.2467041015625,0.064849853515625,0.152587890625,0.2593994140625
2024-03-11 10:40:55.997593818,-6.043956279754639,-27.167278289794922,985.5311889648438,0.0457763634622097,0.133514404296875,-0.064849853515625
2024-03-11 10:40:56.007809431,-6.043956279754639,-27.167278289794922,985.5311889648438,0.0457763634622097,0.133514404296875,-0.064849853515625
2024-03-11 10:40:56.017937161,-11.965812683105469,-27.167278289794922,986.3248291015625,-0.015258788131177425,-0.1068115159869194,-0.072479248046875
2024-03-11 10:40:56.028155419,-11.965812683105469,-27.167278289794922,986.3248291015625,-0.015258788131177425,-0.1068115159869194,-0.072479248046875
2024-03-11 10:40:56.038221564,-10.256410598754883,-22.344324111938477,982.1734619140625,-0.03814697265625,0.06866455078125,-0.072479248046875
2024-03-11 10:40:56.048437477,-12.820513725280762,-27.04517936706543,986.2027587890625,-0.1144409105181694,0.03814697265625,0.2212524265050888
2024-03-11 10:40:56.058584548,-12.820513725280762,-27.04517936706543,986.2027587890625,-0.1144409105181694,0.03814697265625,0.2212524265050888
2024-03-11 10:40:56.068721186,-15.140416145324707,-25.5189266204834,976.3736572265625,0.0534057579934597,0.14495849609375,0.0991821214556694
2024-03-11 10:40:56.079102329,-15.140416145324707,-25.5189266204834,976.3736572265625,0.0534057579934597,0.14495849609375,0.0991821214556694
2024-03-11 10:40:56.089157956,-19.04762077331543,-26.923078536987305,979.91455078125,0.015258788131177425,-0.0953674241900444,-0.1029968187212944
2024-03-11 10:40:56.099270772,-19.04762077331543,-26.923078536987305,979.91455078125,0.015258788131177425,-0.0953674241900444,-0.1029968187212944
2024-03-11 10:40:56.109506715,-10.866911888122559,-22.83272361755371,979.91455078125,-0.0801086351275444,0.06866455078125,0.133514404296875
2024-03-11 10:40:56.119861633,-10.073260307312012,-28.63248062133789,979.9756469726562,-0.02288818173110485,0.1220703050494194,0.0915527269244194
2024-03-11 10:40:56.130168040,-10.073260307312012,-28.63248062133789,979.9756469726562,-0.02288818173110485,0.1220703050494194,0.0915527269244194
2024-03-11 10:40:56.140334073,-15.873016357421875,-29.54823112487793,980.5861206054688,0.1182556077837944,0.14495849609375,0.0762939453125
2024-03-11 10:40:56.150846297,-15.873016357421875,-29.54823112487793,980.5861206054688,0.1182556077837944,0.14495849609375,0.0762939453125
2024-03-11 10:40:56.161011515,-8.058608055114746,-21.794872283935547,979.0598754882812,0.0,0.0495910607278347,0.1106262132525444
2024-03-11 10:40:56.171142432,-8.058608055114746,-21.794872283935547,979.0598754882812,0.0,0.0495910607278347,0.1106262132525444
2024-03-11 10:40:56.181402934,-8.363859176635742,-30.097681045532227,984.859619140625,0.2365112155675888,0.064849853515625,-0.015258788131177425
2024-03-11 10:40:56.191773464,-8.363859176635742,-30.097681045532227,984.859619140625,0.2365112155675888,0.064849853515625,-0.015258788131177425
2024-03-11 10:40:56.201882565,-16.422468185424805,-26.923078536987305,980.4640502929688,-0.0762939453125,-0.1144409105181694,0.1029968187212944
2024-03-11 10:40:56.212201461,-11.782662391662598,-30.036630630493164,982.844970703125,0.0762939453125,0.1068115159869194,0.0534057579934597
2024-03-11 10:40:56.222447443,-11.782662391662598,-30.036630630493164,982.844970703125,0.0762939453125,0.1068115159869194,0.0534057579934597
2024-03-11 10:40:56.232716748,-14.529914855957031,-22.22222328186035,986.2637939453125,0.1678466647863388,0.0,0.0038146970327943563
2024-03-11 10:40:56.242976892,-14.529914855957031,-22.22222328186035,986.2637939453125,0.1678466647863388,0.0,0.0038146970327943563
2024-03-11 10:40:56.253324890,-12.94261360168457,-21.489622116088867,979.2430419921875,0.0038146970327943563,-0.1144409105181694,0.0495910607278347
2024-03-11 10:40:56.263513445,-12.94261360168457,-21.489622116088867,979.2430419921875,0.0038146970327943563,-0.1144409105181694,0.0495910607278347
2024-03-11 10:40:56.273580328,-17.27716827392578,-27.289379119873047,976.0073852539062,0.0495910607278347,0.1869201511144638,-0.0534057579934597
2024-03-11 10:40:56.283726331,-17.27716827392578,-27.289379119873047,976.0073852539062,0.0495910607278347,0.1869201511144638,-0.0534057579934597
2024-03-11 10:40:56.293968233,-16.361417770385742,-29.670331954956055,976.2515869140625,-0.152587890625,0.12969970703125,-0.125885009765625
2024-03-11 10:40:56.304136785,-16.361417770385742,-29.670331954956055,976.2515869140625,-0.152587890625,0.12969970703125,-0.125885009765625
2024-03-11 10:40:56.314282060,-16.361417770385742,-25.396825790405273,983.6386108398438,0.072479248046875,-0.2212524265050888,0.0991821214556694
2024-03-11 10:40:56.324449532,-14.224664688110352,-31.074481964111328,981.8681640625,0.02670287899672985,-0.0572204552590847,-0.02288818173110485
2024-03-11 10:40:56.334969247,-14.224664688110352,-31.074481964111328,981.8681640625,0.02670287899672985,-0.0572204552590847,-0.02288818173110485
2024-03-11 10:40:56.345063640,-13.125763893127441,-20.63492202758789,981.3797607421875,0.2403259128332138,0.0572204552590847,-0.0991821214556694
2024-03-11 10:40:56.355228385,-13.125763893127441,-20.63492202758789,981.3797607421875,0.2403259128332138,0.0572204552590847,-0.0991821214556694
2024-03-11 10:40:56.365396828,-16.056167602539062,-23.931625366210938,987.9732055664062,0.0,-0.152587890625,0.2059936374425888
2024-03-11 10:40:56.375922212,-14.04151439666748,-32.5396842956543,984.676513671875,-0.12969970703125,-0.2059936374425888,0.0572204552590847
2024-03-11 10:40:56.386118898,-14.04151439666748,-32.5396842956543,984.676513671875,-0.12969970703125,-0.2059936374425888,0.0572204552590847
2024-03-11 10:40:56.396302768,-8.730158805847168,-24.053726196289062,978.2662353515625,0.007629394065588713,-0.1144409105181694,0.1831054538488388
2024-03-11 10:40:56.406545018,-12.698412895202637,-27.289379119873047,988.1563110351562,0.0991821214556694,-0.034332275390625,0.0534057579934597
2024-03-11 10:40:56.416697192,-12.698412895202637,-27.289379119873047,988.1563110351562,0.0991821214556694,-0.034332275390625,0.0534057579934597
2024-03-11 10:40:56.426920268,-13.55311393737793,-33.333335876464844,984.737548828125,0.0495910607278347,0.1678466647863388,0.0801086351275444
2024-03-11 10:40:56.437413502,-13.55311393737793,-33.333335876464844,984.737548828125,0.0495910607278347,0.1678466647863388,0.0801086351275444
2024-03-11 10:40:56.447618049,-15.079365730285645,-25.21367645263672,984.1881103515625,0.02670287899672985,0.1754760593175888,-0.03814697265625
2024-03-11 10:40:56.457813000,-19.4749698638916,-21.611722946166992,982.5397338867188,0.1602172702550888,-0.0953674241900444,-0.152587890625
2024-03-11 10:40:56.468020689,-19.4749698638916,-21.611722946166992,982.5397338867188,0.1602172702550888,-0.0953674241900444,-0.152587890625
2024-03-11 10:40:56.478177212,-21.367523193359375,-28.38827896118164,975.5800170898438,0.2365112155675888,-0.1106262132525444,-0.064849853515625
2024-03-11 10:40:56.488305497,-11.477412223815918,-28.876680374145508,975.7021484375,-0.011444090865552425,-0.2059936374425888,0.0839233323931694
2024-03-11 10:40:56.498659079,-11.477412223815918,-28.876680374145508,975.7021484375,-0.011444090865552425,-0.2059936374425888,0.0839233323931694
2024-03-11 10:40:56.508652351,-15.934066772460938,-27.289379119873047,978.876708984375,-0.0038146970327943563,-0.03051757626235485,0.0991821214556694
2024-03-11 10:40:56.518849678,-15.934066772460938,-27.289379119873047,978.876708984375,-0.0038146970327943563,-0.03051757626235485,0.0991821214556694
2024-03-11 10:40:56.529032467,-11.965812683105469,-31.074481964111328,981.1966552734375,-0.0534057579934597,0.0877380296587944,-0.0534057579934597
2024-03-11 10:40:56.539184584,-18.070819854736328,-23.199024200439453,976.1905517578125,-0.12969970703125,-0.0801086351275444,0.156402587890625
2024-03-11 10:40:56.549392809,-18.070819854736328,-23.199024200439453,976.1905517578125,-0.12969970703125,-0.0801086351275444,0.156402587890625
2024-03-11 10:40:56.560008314,-21.062273025512695,-23.565324783325195,983.4555053710938,0.152587890625,0.0877380296587944,0.0610351525247097
2024-03-11 10:40:56.570156141,-21.062273025512695,-23.565324783325195,983.4555053710938,0.152587890625,0.0877380296587944,0.0610351525247097
2024-03-11 10:40:56.580579592,-12.820513725280762,-30.647132873535156,983.1502075195312,-0.0495910607278347,-0.14495849609375,-0.034332275390625
2024-03-11 10:40:56.590749063,-22.52747344970703,-20.390722274780273,979.67041015625,0.06866455078125,0.007629394065588713,0.0839233323931694
2024-03-11 10:40:56.600912864,-22.52747344970703,-20.390722274780273,979.67041015625,0.06866455078125,0.007629394065588713,0.0839233323931694
2024-03-11 10:40:56.611081267,-10.378510475158691,-22.344324111938477,982.2344970703125,0.1831054538488388,0.1182556077837944,-0.0610351525247097
2024-03-11 10:40:56.621350699,-19.65812110900879,-27.71672821044922,978.754638671875,0.0534057579934597,-0.0953674241900444,-0.03051757626235485
2024-03-11 10:40:56.631507139,-19.65812110900879,-27.71672821044922,978.754638671875,0.0534057579934597,-0.0953674241900444,-0.03051757626235485
2024-03-11 10:40:56.641728590,-14.224664688110352,-27.71672821044922,979.91455078125,0.0953674241900444,0.152587890625,0.141143798828125
2024-03-11 10:40:56.651916109,-14.224664688110352,-27.71672821044922,979.91455078125,0.0953674241900444,0.152587890625,0.141143798828125
2024-03-11 10:40:56.662670303,-17.27716827392578,-27.899879455566406,980.5861206054688,-0.0495910607278347,0.0877380296587944,0.03814697265625
2024-03-11 10:40:56.672821147,-16.422468185424805,-25.5189266204834,977.5336303710938,-0.0457763634622097,0.019073486328125,-0.0457763634622097
2024-03-11 10:40:56.682980743,-16.422468185424805,-25.5189266204834,977.5336303710938,-0.0457763634622097,0.019073486328125,-0.0457763634622097
2024-03-11 10:40:56.693186711,-12.698412895202637,-29.975582122802734,981.1355590820312,0.0038146970327943563,0.015258788131177425,0.1106262132525444
2024-03-11 10:40:56.703371347,-12.698412895202637,-29.975582122802734,981.1355590820312,0.0038146970327943563,0.015258788131177425,0.1106262132525444
2024-03-11 10:40:56.713636944,-14.529914855957031,-24.236875534057617,978.693603515625,-0.02670287899672985,-0.011444090865552425,0.12969970703125
2024-03-11 10:40:56.723887674,-14.529914855957031,-24.236875534057617,978.693603515625,-0.02670287899672985,-0.011444090865552425,0.12969970703125
2024-03-11 10:40:56.733932875,-18.559219360351562,-30.46398162841797,975.88525390625,-0.0915527269244194,0.0495910607278347,0.2365112155675888
2024-03-11 10:40:56.744078086,-18.559219360351562,-30.46398162841797,975.88525390625,-0.0915527269244194,0.0495910607278347,0.2365112155675888
2024-03-11 10:40:56.754248169,-7.99755859375,-21.85592269897461,982.722900390625,-0.019073486328125,-0.152587890625,-0.0915527269244194
2024-03-11 10:40:56.764619126,-13.614164352416992,-29.181930541992188,977.6557006835938,0.0953674241900444,0.1907348483800888,0.0991821214556694
2024-03-11 10:40:56.774836406,-13.614164352416992,-29.181930541992188,977.6557006835938,0.0953674241900444,0.1907348483800888,0.0991821214556694
2024-03-11 10:40:56.785152702,-15.323566436767578,-27.533578872680664,983.8828125,-0.0457763634622097,-0.007629394065588713,-0.0457763634622097
2024-03-11 10:40:56.795216009,-18.437118530273438,-28.876680374145508,982.6618041992188,0.0534057579934597,-0.2021789401769638,0.1831054538488388
2024-03-11 10:40:56.805454639,-18.437118530273438,-28.876680374145508,982.6618041992188,0.0534057579934597,-0.2021789401769638,0.1831054538488388
2024-03-11 10:40:56.815615988,-18.864469528198242,-29.365081787109375,981.0134887695312,-0.064849853515625,0.06866455078125,-0.0953674241900444
2024-03-11 10:40:56.825715182,-18.864469528198242,-29.365081787109375,981.0134887695312,-0.064849853515625,0.06866455078125,-0.0953674241900444
2024-03-11 10:40:56.836298146,-14.224664688110352,-23.931625366210938,982.6007690429688,0.0953674241900444,-0.152587890625,-0.0534057579934597
2024-03-11 10:40:56.846389692,-14.224664688110352,-23.931625366210938,982.6007690429688,0.0953674241900444,-0.152587890625,-0.0534057579934597
2024-03-11 10:40:56.856585601,-17.094017028808594,-28.998781204223633,983.8828125,0.0457763634622097,-0.019073486328125,0.0610351525247097
2024-03-11 10:40:56.866888016,-14.835165977478027,-18.74237060546875,978.2052001953125,-0.0801086351275444,-0.0457763634622097,-0.0038146970327943563
2024-03-11 10:40:56.876973963,-14.835165977478027,-18.74237060546875,978.2052001953125,-0.0801086351275444,-0.0457763634622097,-0.0038146970327943563
2024-03-11 10:40:56.887119187,-9.768010139465332,-25.946277618408203,981.80712890625,0.019073486328125,0.1907348483800888,0.0038146970327943563
2024-03-11 10:40:56.897448746,-9.768010139465332,-25.946277618408203,981.80712890625,0.019073486328125,0.1907348483800888,0.0038146970327943563
2024-03-11 10:40:56.907839154,-14.774115562438965,-21.611722946166992,975.9463500976562,0.255584716796875,-0.14495849609375,0.02670287899672985
2024-03-11 10:40:56.917948094,-13.7362642288208,-23.626375198364258,984.676513671875,0.0495910607278347,-0.019073486328125,0.2403259128332138
2024-03-11 10:40:56.928192306,-13.7362642288208,-23.626375198364258,984.676513671875,0.0495910607278347,-0.019073486328125,0.2403259128332138
2024-03-11 10:40:56.938287350,-16.788766860961914,-22.405372619628906,984.798583984375,0.1373291015625,-0.1144409105181694,0.02670287899672985
2024-03-11 10:40:56.948452222,-16.788766860961914,-22.405372619628906,984.798583984375,0.1373291015625,-0.1144409105181694,0.02670287899672985
2024-03-11 10:40:56.958672087,-12.45421314239502,-27.41147804260254,977.89990234375,0.0801086351275444,-0.0572204552590847,0.156402587890625
2024-03-11 10:40:56.968810665,-17.826618194580078,-18.80341911315918,982.2955322265625,-0.019073486328125,0.141143798828125,0.0915527269244194
2024-03-11 10:40:56.979023603,-17.826618194580078,-18.80341911315918,982.2955322265625,-0.019073486328125,0.141143798828125,0.0915527269244194
2024-03-11 10:40:56.989142688,-22.893774032592773,-21.733823776245117,986.9353637695312,-0.1220703050494194,-0.12969970703125,0.1068115159869194
2024-03-11 10:40:56.999244613,-22.893774032592773,-21.733823776245117,986.9353637695312,-0.1220703050494194,-0.12969970703125,0.1068115159869194
2024-03-11 10:40:57.009456278,-13.125763893127441,-23.260074615478516,979.2430419921875,-0.007629394065588713,0.2479553073644638,0.12969970703125
2024-03-11 10:40:57.019751714,-14.529914855957031,-27.838829040527344,978.754638671875,-0.072479248046875,0.0038146970327943563,0.2021789401769638
2024-03-11 10:40:57.029842686,-14.529914855957031,-27.838829040527344,978.754638671875,-0.072479248046875,0.0038146970327943563,0.2021789401769638
2024-03-11 10:40:57.040156893,-15.689866065979004,-30.402931213378906,981.3797607421875,0.156402587890625,-0.12969970703125,0.1602172702550888
2024-03-11 10:40:57.055463697,-15.689866065979004,-30.402931213378906,981.3797607421875,0.156402587890625,-0.12969970703125,0.1602172702550888
2024-03-11 10:40:57.065663238,-10.622711181640625,-26.129426956176758,976.5568237304688,-0.034332275390625,0.148773193359375,-0.015258788131177425
2024-03-11 10:40:57.075771608,-10.744811058044434,-20.757020950317383,981.8681640625,0.02670287899672985,-0.0877380296587944,0.0
2024-03-11 10:40:57.086026465,-10.744811058044434,-20.757020950317383,981.8681640625,0.02670287899672985,-0.0877380296587944,0.0
2024-03-11 10:40:57.096629743,-21.55067253112793,-25.88522720336914,980.5250854492188,-0.011444090865552425,0.011444090865552425,-0.1220703050494194
2024-03-11 10:40:57.106756716,-21.55067253112793,-25.88522720336914,980.5250854492188,-0.011444090865552425,0.011444090865552425,-0.1220703050494194
2024-03-11 10:40:57.116986288,-14.224664688110352,-26.4957275390625,989.8046875,-0.0877380296587944,0.156402587890625,-0.0953674241900444
2024-03-11 10:40:57.127152868,-14.224664688110352,-26.4957275390625,989.8046875,-0.0877380296587944,0.156402587890625,-0.0953674241900444
2024-03-11 10:40:57.137565423,-6.837607383728027,-22.649574279785156,976.5568237304688,-0.02288818173110485,0.019073486328125,0.02670287899672985
2024-03-11 10:40:57.147773872,-6.837607383728027,-22.649574279785156,976.5568237304688,-0.02288818173110485,0.019073486328125,0.02670287899672985
2024-03-11 10:40:57.157948173,-10.744811058044434,-30.402931213378906,986.1416625976562,0.03051757626235485,-0.03814697265625,-0.0953674241900444
2024-03-11 10:40:57.168098942,-7.509157657623291,-26.739927291870117,982.6007690429688,0.1945495456457138,0.1831054538488388,0.2250671237707138
2024-03-11 10:40:57.178346379,-7.509157657623291,-26.739927291870117,982.6007690429688,0.1945495456457138,0.1831054538488388,0.2250671237707138
2024-03-11 10:40:57.188476329,-20.512821197509766,-33.51648712158203,988.0342407226562,0.03051757626235485,0.0419616661965847,-0.1029968187212944
2024-03-11 10:40:57.198668448,-20.512821197509766,-33.51648712158203,988.0342407226562,0.03051757626235485,0.0419616661965847,-0.1029968187212944
2024-03-11 10:40:57.208741910,-13.675214767456055,-15.750916481018066,986.752197265625,0.0877380296587944,-0.2021789401769638,0.0
2024-03-11 10:40:57.218982363,-13.675214767456055,-15.750916481018066,986.752197265625,0.0877380296587944,-0.2021789401769638,0.0
2024-03-11 10:40:57.229376490,-11.294261932373047,-25.763126373291016,986.1416625976562,0.03814697265625,-0.007629394065588713,-0.0457763634622097
2024-03-11 10:40:57.239616348,-11.294261932373047,-25.763126373291016,986.1416625976562,0.03814697265625,-0.007629394065588713,-0.0457763634622097
2024-03-11 10:40:57.249982160,-18.070819854736328,-24.481075286865234,980.5861206054688,0.1106262132525444,-0.0610351525247097,0.011444090865552425
2024-03-11 10:40:57.260171544,-18.070819854736328,-24.481075286865234,980.5861206054688,0.1106262132525444,-0.0610351525247097,0.011444090865552425
2024-03-11 10:40:57.270498855,-13.308914184570312,-25.27472686767578,979.7314453125,0.0953674241900444,-0.06866455078125,0.0038146970327943563
2024-03-11 10:40:57.280800333,-13.308914184570312,-25.27472686767578,979.7314453125,0.0953674241900444,-0.06866455078125,0.0038146970327943563
2024-03-11 10:40:57.291003585,-12.45421314239502,-26.434677124023438,979.5482788085938,0.255584716796875,-0.02288818173110485,0.0991821214556694
2024-03-11 10:40:57.305649736,-13.24786376953125,-27.04517936706543,988.0952758789062,-0.2212524265050888,0.12969970703125,-0.011444090865552425
2024-03-11 10:40:57.315824928,-13.24786376953125,-27.04517936706543,988.0952758789062,-0.2212524265050888,0.12969970703125,-0.011444090865552425
2024-03-11 10:40:57.325942637,-17.032968521118164,-24.847375869750977,982.4176025390625,0.1678466647863388,0.0495910607278347,-0.015258788131177425
2024-03-11 10:40:57.336301028,-17.032968521118164,-24.847375869750977,982.4176025390625,0.1678466647863388,0.0495910607278347,-0.015258788131177425
2024-03-11 10:40:57.346372912,-19.841270446777344,-22.588523864746094,981.1966552734375,0.1792907565832138,-0.06866455078125,0.1678466647863388
2024-03-11 10:40:57.356795324,-19.841270446777344,-22.588523864746094,981.1966552734375,0.1792907565832138,-0.06866455078125,0.1678466647863388
2024-03-11 10:40:57.367023000,-15.262516021728516,-30.21978187561035,980.830322265625,0.0,-0.015258788131177425,0.0953674241900444
2024-03-11 10:40:57.377067321,-13.125763893127441,-23.44322395324707,980.4640502929688,0.03051757626235485,-0.14495849609375,-0.1373291015625
2024-03-11 10:40:57.387610381,-13.125763893127441,-23.44322395324707,980.4640502929688,0.03051757626235485,-0.14495849609375,-0.1373291015625
2024-03-11 10:40:57.397612947,-13.125763893127441,-23.44322395324707,980.4640502929688,0.03051757626235485,-0.14495849609375,-0.1373291015625
2024-03-11 10:40:57.407944483,-11.965812683105469,-29.975582122802734,984.676513671875,0.2136230319738388,-0.0839233323931694,0.141143798828125
2024-03-11 10:40:57.418076974,-16.60561752319336,-29.426130294799805,979.79248046875,-0.015258788131177425,0.0419616661965847,0.0534057579934597
2024-03-11 10:40:57.428246230,-16.60561752319336,-29.426130294799805,979.79248046875,-0.015258788131177425,0.0419616661965847,0.0534057579934597
2024-03-11 10:40:57.438451094,-15.934066772460938,-26.984128952026367,978.9378051757812,-0.015258788131177425,-0.011444090865552425,0.148773193359375
2024-03-11 10:40:57.448651992,-15.934066772460938,-26.984128952026367,978.9378051757812,-0.015258788131177425,-0.011444090865552425,0.148773193359375
2024-03-11 10:40:57.458844257,-25.27472686767578,-31.623933792114258,975.3358154296875,-0.0457763634622097,-0.0457763634622097,0.14495849609375
2024-03-11 10:40:57.468936989,-19.10866928100586,-23.74847412109375,981.1966552734375,0.2136230319738388,0.0762939453125,0.0915527269244194
2024-03-11 10:40:57.479123982,-19.10866928100586,-23.74847412109375,981.1966552734375,0.2136230319738388,0.0762939453125,0.0915527269244194
2024-03-11 10:40:57.489298072,-16.239316940307617,-25.396825790405273,984.1270141601562,-0.0038146970327943563,-0.14495849609375,0.0610351525247097
2024-03-11 10:40:57.499562198,-16.239316940307617,-25.396825790405273,984.1270141601562,-0.0038146970327943563,-0.14495849609375,0.0610351525247097
2024-03-11 10:40:57.509857626,-18.986570358276367,-26.4957275390625,981.1355590820312,0.2593994140625,0.1182556077837944,0.152587890625
2024-03-11 10:40:57.520216533,-18.986570358276367,-26.4957275390625,981.1355590820312,0.2593994140625,0.1182556077837944,0.152587890625
2024-03-11 10:40:57.530201975,-18.131868362426758,-22.344324111938477,975.5189819335938,0.2403259128332138,-0.015258788131177425,0.0
2024-03-11 10:40:57.540605580,-13.55311393737793,-21.062273025512695,981.3797607421875,-0.03051757626235485,0.0419616661965847,0.0915527269244194
2024-03-11 10:40:57.550908675,-13.55311393737793,-21.062273025512695,981.3797607421875,-0.03051757626235485,0.0419616661965847,0.0915527269244194
2024-03-11 10:40:57.560954136,-18.559219360351562,-28.815629959106445,972.4053955078125,-0.03051757626235485,0.1831054538488388,-0.1144409105181694
2024-03-11 10:40:57.571272078,-18.559219360351562,-28.815629959106445,972.4053955078125,-0.03051757626235485,0.1831054538488388,-0.1144409105181694
2024-03-11 10:40:57.581314540,-14.224664688110352,-23.99267578125,988.0342407226562,-0.072479248046875,-0.152587890625,-0.06866455078125
2024-03-11 10:40:57.591603367,-17.826618194580078,-25.030527114868164,976.801025390625,0.0801086351275444,0.03051757626235485,0.0495910607278347
2024-03-11 10:40:57.601683882,-17.826618194580078,-25.030527114868164,976.801025390625,0.0801086351275444,0.03051757626235485,0.0495910607278347
2024-03-11 10:40:57.611909906,-17.338218688964844,-21.123321533203125,987.66796875,0.0534057579934597,0.019073486328125,0.1792907565832138
2024-03-11 10:40:57.622300324,-19.65812110900879,-27.96092987060547,981.1966552734375,0.0572204552590847,-0.0457763634622097,0.1182556077837944
2024-03-11 10:40:57.632409985,-19.65812110900879,-27.96092987060547,981.1966552734375,0.0572204552590847,-0.0457763634622097,0.1182556077837944
2024-03-11 10:40:57.642725606,-18.620269775390625,-22.954824447631836,982.1734619140625,0.1029968187212944,-0.011444090865552425,0.0495910607278347
2024-03-11 10:40:57.652769197,-18.620269775390625,-22.954824447631836,982.1734619140625,0.1029968187212944,-0.011444090865552425,0.0495910607278347
2024-03-11 10:40:57.663007406,-13.85836410522461,-25.824176788330078,980.4029541015625,0.0610351525247097,0.0877380296587944,0.011444090865552425
2024-03-11 10:40:57.673092433,-17.21611785888672,-24.358976364135742,986.2027587890625,-0.0457763634622097,-0.0572204552590847,0.06866455078125
2024-03-11 10:40:57.690477104,-17.338218688964844,-22.954824447631836,975.76318359375,0.0877380296587944,0.03814697265625,-0.03051757626235485
2024-03-11 10:40:57.700659842,-17.338218688964844,-22.954824447631836,975.76318359375,0.0877380296587944,0.03814697265625,-0.03051757626235485
2024-03-11 10:40:57.711000232,-12.45421314239502,-23.44322395324707,976.0684204101562,0.0762939453125,-0.0610351525247097,-0.0953674241900444
2024-03-11 10:40:57.721422525,-18.253969192504883,-30.83028221130371,986.3248291015625,-0.1754760593175888,0.2593994140625,0.0839233323931694
2024-03-11 10:40:57.731852246,-18.253969192504883,-30.83028221130371,986.3248291015625,-0.1754760593175888,0.2593994140625,0.0839233323931694
2024-03-11 10:40:57.742249674,-17.643468856811523,-21.367523193359375,982.9671020507812,0.0457763634622097,-0.03814697265625,-0.0495910607278347
2024-03-11 10:40:57.752477787,-19.597070693969727,-22.52747344970703,978.4494018554688,0.0762939453125,0.034332275390625,0.0915527269244194
2024-03-11 10:40:57.762680741,-19.597070693969727,-22.52747344970703,978.4494018554688,0.0762939453125,0.034332275390625,0.0915527269244194
2024-03-11 10:40:57.772853052,-13.980464935302734,-24.60317611694336,982.6007690429688,0.02670287899672985,-0.12969970703125,-0.03051757626235485
2024-03-11 10:40:57.783126416,-13.980464935302734,-24.60317611694336,982.6007690429688,0.02670287899672985,-0.12969970703125,-0.03051757626235485
2024-03-11 10:40:57.793287148,-9.645910263061523,-32.05128479003906,980.3419189453125,-0.072479248046875,0.0610351525247097,-0.015258788131177425
2024-03-11 10:40:57.803351503,-13.7362642288208,-31.196582794189453,978.0830688476562,0.0419616661965847,0.141143798828125,0.1678466647863388
2024-03-11 10:40:57.813576117,-13.7362642288208,-31.196582794189453,978.0830688476562,0.0419616661965847,0.141143798828125,0.1678466647863388
2024-03-11 10:40:57.823877415,-18.376070022583008,-26.251527786254883,974.0537719726562,-0.0991821214556694,-0.007629394065588713,0.0915527269244194
2024-03-11 10:40:57.834046391,-18.376070022583008,-26.251527786254883,974.0537719726562,-0.0991821214556694,-0.007629394065588713,0.0915527269244194
2024-03-11 10:40:57.844256916,-18.4981689453125,-22.588523864746094,981.1355590820312,0.0419616661965847,0.1068115159869194,0.0
2024-03-11 10:40:57.854427948,-15.140416145324707,-25.57997703552246,981.80712890625,0.148773193359375,0.1182556077837944,-0.007629394065588713
2024-03-11 10:40:57.864606948,-15.140416145324707,-25.57997703552246,981.80712890625,0.148773193359375,0.1182556077837944,-0.007629394065588713
2024-03-11 10:40:57.875376608,-19.35287094116211,-23.076923370361328,979.91455078125,0.0762939453125,0.1068115159869194,0.2021789401769638
2024-03-11 10:40:57.885646954,-15.567766189575195,-29.914531707763672,979.1209106445312,0.0457763634622097,-0.02288818173110485,0.02288818173110485
2024-03-11 10:40:57.896490532,-15.567766189575195,-29.914531707763672,979.1209106445312,0.0457763634622097,-0.02288818173110485,0.02288818173110485
2024-03-11 10:40:57.906744654,-13.55311393737793,-23.99267578125,988.5836791992188,0.1144409105181694,0.0419616661965847,0.12969970703125
2024-03-11 10:40:57.916959048,-13.55311393737793,-23.99267578125,988.5836791992188,0.1144409105181694,0.0419616661965847,0.12969970703125
2024-03-11 10:40:57.927318532,-12.515263557434082,-21.611722946166992,982.0513305664062,0.019073486328125,-0.06866455078125,-0.019073486328125
2024-03-11 10:40:57.937589111,-12.515263557434082,-21.611722946166992,982.0513305664062,0.019073486328125,-0.06866455078125,-0.019073486328125
2024-03-11 10:40:57.947880045,-12.881563186645508,-19.04762077331543,979.4262084960938,-0.0038146970327943563,0.133514404296875,-0.1640319675207138
2024-03-11 10:40:57.958054195,-12.087912559509277,-30.952383041381836,978.0830688476562,0.02670287899672985,-0.0419616661965847,0.1029968187212944
2024-03-11 10:40:57.968213557,-12.087912559509277,-30.952383041381836,978.0830688476562,0.02670287899672985,-0.0419616661965847,0.1029968187212944
2024-03-11 10:40:57.978424795,-9.951160430908203,-23.260074615478516,977.3504638671875,-0.12969970703125,-0.1068115159869194,0.125885009765625
2024-03-11 10:40:57.988693451,-9.951160430908203,-23.260074615478516,977.3504638671875,-0.12969970703125,-0.1068115159869194,0.125885009765625
2024-03-11 10:40:57.998844009,-14.774115562438965,-21.794872283935547,983.5165405273438,0.0572204552590847,-0.0038146970327943563,-0.0877380296587944
2024-03-11 10:40:58.009041709,-19.35287094116211,-31.562883377075195,977.2283935546875,0.1869201511144638,-0.03051757626235485,0.03051757626235485
2024-03-11 10:40:58.019343012,-19.35287094116211,-31.562883377075195,977.2283935546875,0.1869201511144638,-0.03051757626235485,0.03051757626235485
2024-03-11 10:40:58.029473469,-20.390722274780273,-21.55067253112793,981.4408569335938,0.064849853515625,0.011444090865552425,-0.1182556077837944
2024-03-11 10:40:58.040086781,-15.201465606689453,-25.396825790405273,977.8388671875,-0.0495910607278347,-0.0419616661965847,-0.0801086351275444
2024-03-11 10:40:58.050117024,-15.201465606689453,-25.396825790405273,977.8388671875,-0.0495910607278347,-0.0419616661965847,-0.0801086351275444
2024-03-11 10:40:58.060364984,-14.04151439666748,-23.44322395324707,980.2198486328125,-0.1106262132525444,0.0419616661965847,0.1144409105181694
2024-03-11 10:40:58.070635314,-14.04151439666748,-23.44322395324707,980.2198486328125,-0.1106262132525444,0.0419616661965847,0.1144409105181694
2024-03-11 10:40:58.080856024,-17.032968521118164,-25.5189266204834,986.3858642578125,-0.007629394065588713,0.0495910607278347,0.141143798828125
2024-03-11 10:40:58.091159596,-16.849817276000977,-20.818071365356445,985.1648559570312,0.0457763634622097,0.019073486328125,0.1983642429113388
2024-03-11 10:40:58.101403629,-16.849817276000977,-20.818071365356445,985.1648559570312,0.0457763634622097,0.019073486328125,0.1983642429113388
2024-03-11 10:40:58.111510644,-20.390722274780273,-19.169719696044922,975.2137451171875,0.064849853515625,0.019073486328125,0.007629394065588713
2024-03-11 10:40:58.126495130,-25.824176788330078,-25.335777282714844,982.6618041992188,0.0991821214556694,0.152587890625,0.011444090865552425
2024-03-11 10:40:58.136738143,-25.824176788330078,-25.335777282714844,982.6618041992188,0.0991821214556694,0.152587890625,0.011444090865552425
2024-03-11 10:40:58.146904846,-9.523810386657715,-27.167278289794922,980.9524536132812,-0.0534057579934597,0.0762939453125,0.1602172702550888
2024-03-11 10:40:58.157189912,-9.523810386657715,-27.167278289794922,980.9524536132812,-0.0534057579934597,0.0762939453125,0.1602172702550888
2024-03-11 10:40:58.167247627,-15.323566436767578,-23.076923370361328,983.2723388671875,-0.02670287899672985,-0.06866455078125,0.1220703050494194
2024-03-11 10:40:58.177515007,-15.323566436767578,-23.076923370361328,983.2723388671875,-0.02670287899672985,-0.06866455078125,0.1220703050494194
2024-03-11 10:40:58.187633450,-21.367523193359375,-23.321125030517578,982.2955322265625,0.072479248046875,0.0801086351275444,-0.06866455078125
2024-03-11 10:40:58.197912020,-21.367523193359375,-23.321125030517578,982.2955322265625,0.072479248046875,0.0801086351275444,-0.06866455078125
2024-03-11 10:40:58.208183529,-11.904762268066406,-29.120880126953125,982.1734619140625,0.0953674241900444,0.0762939453125,0.034332275390625
2024-03-11 10:40:58.218334319,-11.904762268066406,-29.120880126953125,982.1734619140625,0.0953674241900444,0.0762939453125,0.034332275390625
2024-03-11 10:40:58.228621746,-15.811966896057129,-21.55067253112793,984.5543823242188,0.0495910607278347,0.019073486328125,0.141143798828125
2024-03-11 10:40:58.238876768,-15.811966896057129,-21.55067253112793,984.5543823242188,0.0495910607278347,0.019073486328125,0.141143798828125
2024-03-11 10:40:58.249088207,-18.74237060546875,-22.954824447631836,980.5861206054688,-0.011444090865552425,0.1068115159869194,-0.072479248046875
2024-03-11 10:40:58.259136381,-18.74237060546875,-22.954824447631836,980.5861206054688,-0.011444090865552425,0.1068115159869194,-0.072479248046875
2024-03-11 10:40:58.269469741,-12.210012435913086,-29.304031372070312,983.3944091796875,0.1602172702550888,0.0801086351275444,-0.1640319675207138
2024-03-11 10:40:58.279694623,-12.210012435913086,-29.304031372070312,983.3944091796875,0.1602172702550888,0.0801086351275444,-0.1640319675207138
2024-03-11 10:40:58.289772915,-17.21611785888672,-28.144079208374023,980.6471557617188,0.1602172702550888,0.06866455078125,0.03051757626235485
2024-03-11 10:40:58.300144683,-17.21611785888672,-28.144079208374023,980.6471557617188,0.1602172702550888,0.06866455078125,0.03051757626235485
2024-03-11 10:40:58.310261134,-9.40170955657959,-22.344324111938477,987.72900390625,-0.064849853515625,-0.12969970703125,0.25177001953125
2024-03-11 10:40:58.320743191,-13.7362642288208,-31.501832962036133,983.0281372070312,-0.0991821214556694,-0.14495849609375,-0.0762939453125
2024-03-11 10:40:58.330889234,-13.7362642288208,-31.501832962036133,983.0281372070312,-0.0991821214556694,-0.14495849609375,-0.0762939453125
2024-03-11 10:40:58.340970035,-14.652015686035156,-23.504274368286133,979.5482788085938,-0.1144409105181694,-0.0877380296587944,0.0038146970327943563
2024-03-11 10:40:58.351179376,-14.652015686035156,-23.504274368286133,979.5482788085938,-0.1144409105181694,-0.0877380296587944,0.0038146970327943563
2024-03-11 10:40:58.361474087,-16.544567108154297,-28.08302879333496,985.83642578125,0.0038146970327943563,-0.1792907565832138,0.0915527269244194
2024-03-11 10:40:58.374527206,-8.79120922088623,-15.079365730285645,979.91455078125,-0.0457763634622097,0.133514404296875,0.064849853515625
2024-03-11 10:40:58.384708709,-8.79120922088623,-15.079365730285645,979.91455078125,-0.0457763634622097,0.133514404296875,0.064849853515625
2024-03-11 10:40:58.394989276,-14.04151439666748,-22.893774032592773,986.4469604492188,-0.0038146970327943563,-0.011444090865552425,0.141143798828125
2024-03-11 10:40:58.405097572,-16.483516693115234,-22.83272361755371,976.9231567382812,0.1869201511144638,-0.1792907565832138,0.1754760593175888
2024-03-11 10:40:58.415423179,-16.483516693115234,-22.83272361755371,976.9231567382812,0.1869201511144638,-0.1792907565832138,0.1754760593175888
2024-03-11 10:40:58.425741558,-17.21611785888672,-23.076923370361328,984.859619140625,0.1373291015625,-0.0801086351275444,0.015258788131177425
2024-03-11 10:40:58.435865074,-17.21611785888672,-23.076923370361328,984.859619140625,0.1373291015625,-0.0801086351275444,0.015258788131177425
2024-03-11 10:40:58.446186386,-12.515263557434082,-27.533578872680664,984.0659790039062,0.0877380296587944,0.06866455078125,-0.0419616661965847
2024-03-11 10:40:58.456305820,-12.515263557434082,-27.533578872680664,984.0659790039062,0.0877380296587944,0.06866455078125,-0.0419616661965847
2024-03-11 10:40:58.466535136,-14.835165977478027,-28.38827896118164,987.1795654296875,-0.007629394065588713,-0.0457763634622097,-0.14495849609375
2024-03-11 10:40:58.476909078,-14.835165977478027,-28.38827896118164,987.1795654296875,-0.007629394065588713,-0.0457763634622097,-0.14495849609375
2024-03-11 10:40:58.487032546,-14.835165977478027,-28.38827896118164,987.1795654296875,-0.007629394065588713,-0.0457763634622097,-0.14495849609375
2024-03-11 10:40:58.497391082,-17.704519271850586,-23.44322395324707,979.6093139648438,-0.03051757626235485,-0.0457763634622097,0.1106262132525444
2024-03-11 10:40:58.507556490,-17.704519271850586,-23.44322395324707,979.6093139648438,-0.03051757626235485,-0.0457763634622097,0.1106262132525444
2024-03-11 10:40:58.517854895,-13.308914184570312,-25.946277618408203,981.1966552734375,-0.0991821214556694,-0.064849853515625,0.1106262132525444
2024-03-11 10:40:58.528086503,-11.782662391662598,-26.129426956176758,976.2515869140625,0.034332275390625,0.1678466647863388,0.152587890625
2024-03-11 10:40:58.538235256,-11.782662391662598,-26.129426956176758,976.2515869140625,0.034332275390625,0.1678466647863388,0.152587890625
2024-03-11 10:40:58.548449267,-21.184371948242188,-28.205129623413086,986.691162109375,0.1144409105181694,-0.125885009765625,0.0457763634622097
2024-03-11 10:40:58.558620308,-21.184371948242188,-28.205129623413086,986.691162109375,0.1144409105181694,-0.125885009765625,0.0457763634622097
2024-03-11 10:40:58.568871896,-5.92185640335083,-27.35042953491211,973.9927368164062,0.0457763634622097,0.141143798828125,-0.0038146970327943563
2024-03-11 10:40:58.579017754,-5.92185640335083,-27.35042953491211,973.9927368164062,0.0457763634622097,0.141143798828125,-0.0038146970327943563
2024-03-11 10:40:58.589178213,-10.378510475158691,-28.63248062133789,984.9817504882812,0.148773193359375,-0.034332275390625,0.0953674241900444
2024-03-11 10:40:58.599397259,-10.378510475158691,-28.63248062133789,984.9817504882812,0.148773193359375,-0.034332275390625,0.0953674241900444
2024-03-11 10:40:58.609598856,-10.256410598754883,-25.030527114868164,982.1734619140625,-0.011444090865552425,0.1068115159869194,-0.125885009765625
2024-03-11 10:40:58.619923505,-20.26862144470215,-25.335777282714844,984.4323120117188,-0.0534057579934597,-0.06866455078125,0.03814697265625
2024-03-11 10:40:58.630141149,-20.26862144470215,-25.335777282714844,984.4323120117188,-0.0534057579934597,-0.06866455078125,0.03814697265625
2024-03-11 10:40:58.646535084,-25.457876205444336,-23.809524536132812,983.3944091796875,0.0915527269244194,-0.0762939453125,-0.064849853515625
2024-03-11 10:40:58.656878527,-12.63736343383789,-27.228328704833984,987.0574340820312,-0.0801086351275444,-0.0877380296587944,0.1106262132525444
2024-03-11 10:40:58.667017624,-12.63736343383789,-27.228328704833984,987.0574340820312,-0.0801086351275444,-0.0877380296587944,0.1106262132525444
2024-03-11 10:40:58.677316586,-9.218559265136719,-25.946277618408203,971.73388671875,-0.1068115159869194,-0.0457763634622097,0.12969970703125
2024-03-11 10:40:58.687456232,-9.218559265136719,-25.946277618408203,971.73388671875,-0.1068115159869194,-0.0457763634622097,0.12969970703125
2024-03-11 10:40:58.697768673,-11.721611976623535,-19.35287094116211,975.2137451171875,0.0457763634622097,-0.0915527269244194,0.1983642429113388
2024-03-11 10:40:58.707860131,-11.721611976623535,-19.35287094116211,975.2137451171875,0.0457763634622097,-0.0915527269244194,0.1983642429113388
2024-03-11 10:40:58.718115057,-18.4981689453125,-29.426130294799805,984.2491455078125,0.133514404296875,-0.06866455078125,0.007629394065588713
2024-03-11 10:40:58.728349221,-13.614164352416992,-31.379732131958008,986.4469604492188,0.0610351525247097,-0.02670287899672985,0.007629394065588713
2024-03-11 10:40:58.738582114,-13.614164352416992,-31.379732131958008,986.4469604492188,0.0610351525247097,-0.02670287899672985,0.007629394065588713
2024-03-11 10:40:58.748928198,-8.913309097290039,-28.998781204223633,986.1416625976562,0.02288818173110485,-0.1792907565832138,0.1792907565832138
2024-03-11 10:40:58.759074455,-8.913309097290039,-28.998781204223633,986.1416625976562,0.02288818173110485,-0.1792907565832138,0.1792907565832138
2024-03-11 10:40:58.769239957,-13.675214767456055,-24.60317611694336,978.2662353515625,0.1602172702550888,-0.1068115159869194,0.1602172702550888
2024-03-11 10:40:58.779552230,-13.675214767456055,-24.60317611694336,978.2662353515625,0.1602172702550888,-0.1068115159869194,0.1602172702550888
2024-03-11 10:40:58.789610057,-17.094017028808594,-21.916973114013672,979.3040771484375,-0.06866455078125,-0.03814697265625,0.148773193359375
2024-03-11 10:40:58.799791694,-17.094017028808594,-21.916973114013672,979.3040771484375,-0.06866455078125,-0.03814697265625,0.148773193359375
2024-03-11 10:40:58.809999825,-16.544567108154297,-19.4749698638916,990.4762573242188,-0.1373291015625,-0.1220703050494194,0.007629394065588713
2024-03-11 10:40:58.820219832,-15.262516021728516,-30.891332626342773,979.853515625,-0.1029968187212944,0.1068115159869194,0.02670287899672985
2024-03-11 10:40:58.830712800,-15.262516021728516,-30.891332626342773,979.853515625,-0.1029968187212944,0.1068115159869194,0.02670287899672985
2024-03-11 10:40:58.840764963,-18.681320190429688,-23.931625366210938,985.71435546875,-0.14495849609375,-0.0953674241900444,0.2250671237707138
2024-03-11 10:40:58.851005839,-18.681320190429688,-23.931625366210938,985.71435546875,-0.14495849609375,-0.0953674241900444,0.2250671237707138
2024-03-11 10:40:58.861419499,-15.262516021728516,-16.788766860961914,982.4176025390625,0.0877380296587944,0.0038146970327943563,0.0839233323931694
2024-03-11 10:40:58.871561538,-15.934066772460938,-30.647132873535156,979.7314453125,0.0877380296587944,-0.019073486328125,0.2136230319738388
2024-03-11 10:40:58.881811933,-15.934066772460938,-30.647132873535156,979.7314453125,0.0877380296587944,-0.019073486328125,0.2136230319738388
2024-03-11 10:40:58.892021078,-12.332113265991211,-32.35653305053711,989.6826171875,0.14495849609375,-0.2021789401769638,-0.1640319675207138
2024-03-11 10:40:58.902200066,-12.332113265991211,-32.35653305053711,989.6826171875,0.14495849609375,-0.2021789401769638,-0.1640319675207138
2024-03-11 10:40:58.912425946,-17.338218688964844,-26.373628616333008,979.5482788085938,0.30517578125,-0.02288818173110485,0.1182556077837944
2024-03-11 10:40:58.922580336,-17.338218688964844,-26.373628616333008,979.5482788085938,0.30517578125,-0.02288818173110485,0.1182556077837944
2024-03-11 10:40:58.932793015,-15.018315315246582,-29.426130294799805,980.6471557617188,0.1068115159869194,-0.1869201511144638,0.0038146970327943563
2024-03-11 10:40:58.942891355,-16.60561752319336,-27.594629287719727,977.2894287109375,0.02288818173110485,-0.141143798828125,0.1373291015625
2024-03-11 10:40:58.953166020,-16.60561752319336,-27.594629287719727,977.2894287109375,0.02288818173110485,-0.141143798828125,0.1373291015625
2024-03-11 10:40:58.963235577,-13.7362642288208,-28.754579544067383,982.4176025390625,-0.02670287899672985,-0.1144409105181694,-0.133514404296875
2024-03-11 10:40:58.973421030,-13.7362642288208,-28.754579544067383,982.4176025390625,-0.02670287899672985,-0.1144409105181694,-0.133514404296875
2024-03-11 10:40:58.983625028,-22.100122451782227,-26.678878784179688,979.2430419921875,-0.02288818173110485,-0.011444090865552425,-0.072479248046875
2024-03-11 10:40:58.993780142,-22.100122451782227,-26.678878784179688,979.2430419921875,-0.02288818173110485,-0.011444090865552425,-0.072479248046875
2024-03-11 10:40:59.004004345,-16.60561752319336,-20.818071365356445,982.5397338867188,-0.1029968187212944,-0.0534057579934597,0.1144409105181694
2024-03-11 10:40:59.014169629,-16.60561752319336,-20.818071365356445,982.5397338867188,-0.1029968187212944,-0.0534057579934597,0.1144409105181694
2024-03-11 10:40:59.024466911,-10.317461013793945,-28.08302879333496,985.1648559570312,-0.011444090865552425,0.0991821214556694,0.02288818173110485
2024-03-11 10:40:59.034772139,-10.317461013793945,-28.08302879333496,985.1648559570312,-0.011444090865552425,0.0991821214556694,0.02288818173110485
2024-03-11 10:40:59.044885387,-10.317461013793945,-28.08302879333496,985.1648559570312,-0.011444090865552425,0.0991821214556694,0.02288818173110485
2024-03-11 10:40:59.055170933,-8.669109344482422,-33.333335876464844,979.67041015625,-0.072479248046875,-0.0877380296587944,0.1754760593175888
2024-03-11 10:40:59.065354328,-8.669109344482422,-33.333335876464844,979.67041015625,-0.072479248046875,-0.0877380296587944,0.1754760593175888
2024-03-11 10:40:59.075581869,-19.65812110900879,-29.914531707763672,982.844970703125,0.0534057579934597,-0.0610351525247097,0.02670287899672985
2024-03-11 10:40:59.085712124,-19.65812110900879,-29.914531707763672,982.844970703125,0.0534057579934597,-0.0610351525247097,0.02670287899672985
2024-03-11 10:40:59.095920060,-12.332113265991211,-24.175825119018555,982.906005859375,0.2021789401769638,-0.2136230319738388,-0.072479248046875
2024-03-11 10:40:59.106093793,-16.9719181060791,-28.63248062133789,988.705810546875,-0.03051757626235485,0.019073486328125,0.2021789401769638
2024-03-11 10:40:59.116291395,-16.9719181060791,-28.63248062133789,988.705810546875,-0.03051757626235485,0.019073486328125,0.2021789401769638
2024-03-11 10:40:59.126478226,-16.9719181060791,-28.63248062133789,988.705810546875,-0.03051757626235485,0.019073486328125,0.2021789401769638
2024-03-11 10:40:59.136639433,-15.689866065979004,-27.10622787475586,978.6325073242188,0.1907348483800888,0.0762939453125,0.0038146970327943563
2024-03-11 10:40:59.146959523,-13.125763893127441,-26.007328033447266,979.5482788085938,-0.0839233323931694,0.0,-0.1106262132525444
2024-03-11 10:40:59.157101261,-13.125763893127441,-26.007328033447266,979.5482788085938,-0.0839233323931694,0.0,-0.1106262132525444
2024-03-11 10:40:59.167259603,-11.477412223815918,-24.90842628479004,978.6325073242188,0.1792907565832138,-0.0457763634622097,0.0572204552590847
2024-03-11 10:40:59.177523348,-11.477412223815918,-24.90842628479004,978.6325073242188,0.1792907565832138,-0.0457763634622097,0.0572204552590847
2024-03-11 10:40:59.187847081,-13.980464935302734,-26.129426956176758,974.4200439453125,0.03814697265625,-0.03051757626235485,-0.072479248046875
2024-03-11 10:40:59.197974804,-17.704519271850586,-24.786325454711914,977.3504638671875,0.1144409105181694,0.308990478515625,-0.015258788131177425
2024-03-11 10:40:59.208186657,-17.704519271850586,-24.786325454711914,977.3504638671875,0.1144409105181694,0.308990478515625,-0.015258788131177425
2024-03-11 10:40:59.218353592,-16.666667938232422,-23.870574951171875,979.91455078125,0.0991821214556694,0.1831054538488388,-0.064849853515625
2024-03-11 10:40:59.228714238,-16.666667938232422,-23.870574951171875,979.91455078125,0.0991821214556694,0.1831054538488388,-0.064849853515625
2024-03-11 10:40:59.238878561,-15.628816604614258,-27.838829040527344,977.716796875,0.1640319675207138,-0.007629394065588713,-0.011444090865552425
2024-03-11 10:40:59.249143562,-15.628816604614258,-27.838829040527344,977.716796875,0.1640319675207138,-0.007629394065588713,-0.011444090865552425
2024-03-11 10:40:59.259410538,-13.85836410522461,-24.664226531982422,983.5775756835938,0.034332275390625,-0.015258788131177425,0.1220703050494194
2024-03-11 10:40:59.269707877,-12.698412895202637,-32.478633880615234,980.2808837890625,0.1068115159869194,-0.1029968187212944,0.125885009765625
2024-03-11 10:40:59.279938199,-12.698412895202637,-32.478633880615234,980.2808837890625,0.1068115159869194,-0.1029968187212944,0.125885009765625
2024-03-11 10:40:59.290005708,-20.26862144470215,-23.44322395324707,979.1209106445312,0.0,-0.0839233323931694,-0.02670287899672985
2024-03-11 10:40:59.300224242,-9.340660095214844,-29.059829711914062,977.0452270507812,0.1373291015625,-0.06866455078125,0.015258788131177425
2024-03-11 10:40:59.310429364,-9.340660095214844,-29.059829711914062,977.0452270507812,0.1373291015625,-0.06866455078125,0.015258788131177425
2024-03-11 10:40:59.321097370,-11.050061225891113,-22.283273696899414,977.5946655273438,0.064849853515625,0.0534057579934597,0.0
2024-03-11 10:40:59.331265169,-11.050061225891113,-22.283273696899414,977.5946655273438,0.064849853515625,0.0534057579934597,0.0
2024-03-11 10:40:59.341476713,-10.744811058044434,-25.091575622558594,980.830322265625,0.06866455078125,0.019073486328125,0.02288818173110485
2024-03-11 10:40:59.351743727,-13.064713478088379,-26.068376541137695,985.2869873046875,0.0457763634622097,-0.1144409105181694,0.03814697265625
2024-03-11 10:40:59.362075014,-13.064713478088379,-26.068376541137695,985.2869873046875,0.0457763634622097,-0.1144409105181694,0.03814697265625
2024-03-11 10:40:59.372276392,-11.599512100219727,-24.236875534057617,972.5885620117188,0.03051757626235485,0.125885009765625,0.0610351525247097
2024-03-11 10:40:59.382592008,-11.599512100219727,-24.236875534057617,972.5885620117188,0.03051757626235485,0.125885009765625,0.0610351525247097
2024-03-11 10:40:59.392887884,-15.201465606689453,-28.510379791259766,972.4053955078125,0.0,0.019073486328125,0.072479248046875
2024-03-11 10:40:59.402986579,-15.201465606689453,-28.510379791259766,972.4053955078125,0.0,0.019073486328125,0.072479248046875
2024-03-11 10:40:59.413201660,-16.727718353271484,-31.868133544921875,982.6618041992188,-0.0610351525247097,0.0419616661965847,0.0495910607278347
2024-03-11 10:40:59.423416611,-24.60317611694336,-18.4981689453125,983.69970703125,0.2479553073644638,0.1373291015625,0.0495910607278347
2024-03-11 10:40:59.433748153,-24.60317611694336,-18.4981689453125,983.69970703125,0.2479553073644638,0.1373291015625,0.0495910607278347
2024-03-11 10:40:59.444217239,-11.782662391662598,-30.708181381225586,979.3040771484375,0.0534057579934597,0.1182556077837944,0.1945495456457138
2024-03-11 10:40:59.454082521,-18.80341911315918,-24.420024871826172,971.3675537109375,0.1220703050494194,0.255584716796875,0.0572204552590847
2024-03-11 10:40:59.464457191,-18.80341911315918,-24.420024871826172,971.3675537109375,0.1220703050494194,0.255584716796875,0.0572204552590847
2024-03-11 10:40:59.474668381,-17.399269104003906,-19.536020278930664,982.5397338867188,0.06866455078125,-0.2059936374425888,0.26702880859375
2024-03-11 10:40:59.484789026,-17.399269104003906,-19.536020278930664,982.5397338867188,0.06866455078125,-0.2059936374425888,0.26702880859375
2024-03-11 10:40:59.495214024,-15.689866065979004,-27.41147804260254,980.0366821289062,-0.0839233323931694,-0.1220703050494194,0.1678466647863388
2024-03-11 10:40:59.505489839,-18.681320190429688,-29.181930541992188,982.844970703125,0.011444090865552425,-0.0419616661965847,0.2174377292394638
2024-03-11 10:40:59.515772234,-18.681320190429688,-29.181930541992188,982.844970703125,0.011444090865552425,-0.0419616661965847,0.2174377292394638
2024-03-11 10:40:59.526039170,-20.63492202758789,-24.236875534057617,978.9988403320312,-0.14495849609375,-0.1144409105181694,0.152587890625
2024-03-11 10:40:59.536193790,-20.63492202758789,-24.236875534057617,978.9988403320312,-0.14495849609375,-0.1144409105181694,0.152587890625
2024-03-11 10:40:59.546264866,-10.989011764526367,-26.739927291870117,978.9988403320312,0.0572204552590847,0.019073486328125,-0.0457763634622097
2024-03-11 10:40:59.556468309,-10.989011764526367,-26.739927291870117,978.9988403320312,0.0572204552590847,0.019073486328125,-0.0457763634622097
2024-03-11 10:40:59.566678621,-11.172162055969238,-33.089134216308594,983.82177734375,0.14495849609375,-0.06866455078125,-0.064849853515625
2024-03-11 10:40:59.577019873,-13.55311393737793,-25.702077865600586,975.5189819335938,-0.06866455078125,-0.064849853515625,0.072479248046875
2024-03-11 10:40:59.587241065,-13.55311393737793,-25.702077865600586,975.5189819335938,-0.06866455078125,-0.064849853515625,0.072479248046875
2024-03-11 10:40:59.597419846,-17.704519271850586,-24.9694766998291,981.1966552734375,-0.011444090865552425,0.1831054538488388,0.0038146970327943563
2024-03-11 10:40:59.607721184,-17.704519271850586,-24.9694766998291,981.1966552734375,-0.011444090865552425,0.1831054538488388,0.0038146970327943563
2024-03-11 10:40:59.618034044,-16.60561752319336,-23.38217544555664,976.862060546875,-0.1869201511144638,0.0495910607278347,0.0839233323931694
2024-03-11 10:40:59.628204188,-16.60561752319336,-23.38217544555664,976.862060546875,-0.1869201511144638,0.0495910607278347,0.0839233323931694
2024-03-11 10:40:59.638423086,-9.462759971618652,-24.9694766998291,977.8388671875,0.3547668159008026,-0.0534057579934597,0.02288818173110485
2024-03-11 10:40:59.648687189,-15.750916481018066,-27.04517936706543,977.4114990234375,0.1602172702550888,0.06866455078125,-0.019073486328125
2024-03-11 10:40:59.658817000,-15.750916481018066,-27.04517936706543,977.4114990234375,0.1602172702550888,0.06866455078125,-0.019073486328125
2024-03-11 10:40:59.668949911,-18.864469528198242,-25.091575622558594,978.9988403320312,0.1182556077837944,0.0572204552590847,-0.1754760593175888
2024-03-11 10:40:59.679168663,-15.9951171875,-29.975582122802734,977.0452270507812,0.0762939453125,-0.072479248046875,0.1640319675207138
2024-03-11 10:40:59.689391415,-15.9951171875,-29.975582122802734,977.0452270507812,0.0762939453125,-0.072479248046875,0.1640319675207138
2024-03-11 10:40:59.699771747,-9.09645938873291,-27.96092987060547,977.5946655273438,0.034332275390625,0.125885009765625,0.06866455078125
2024-03-11 10:40:59.709882392,-9.09645938873291,-27.96092987060547,977.5946655273438,0.034332275390625,0.125885009765625,0.06866455078125
2024-03-11 10:40:59.720075343,-10.989011764526367,-27.96092987060547,985.5311889648438,-0.0419616661965847,-0.0953674241900444,-0.0419616661965847
2024-03-11 10:40:59.730255364,-10.989011764526367,-27.96092987060547,985.5311889648438,-0.0419616661965847,-0.0953674241900444,-0.0419616661965847
2024-03-11 10:40:59.740406557,-12.63736343383789,-26.373628616333008,975.3968505859375,0.0877380296587944,-0.1029968187212944,0.015258788131177425
2024-03-11 10:40:59.750708748,-14.957265853881836,-24.72527503967285,984.4933471679688,0.011444090865552425,0.03814697265625,0.14495849609375
2024-03-11 10:40:59.760826985,-14.957265853881836,-24.72527503967285,984.4933471679688,0.011444090865552425,0.03814697265625,0.14495849609375
2024-03-11 10:40:59.771176854,-15.811966896057129,-29.670331954956055,986.4469604492188,-0.1678466647863388,-0.133514404296875,0.1983642429113388
2024-03-11 10:40:59.781422310,-15.811966896057129,-29.670331954956055,986.4469604492188,-0.1678466647863388,-0.133514404296875,0.1983642429113388
2024-03-11 10:40:59.791811160,-11.538461685180664,-21.306472778320312,985.0427856445312,-0.1716613620519638,-0.0877380296587944,0.1182556077837944
2024-03-11 10:40:59.801838031,-11.538461685180664,-21.306472778320312,985.0427856445312,-0.1716613620519638,-0.0877380296587944,0.1182556077837944
2024-03-11 10:40:59.812226807,-17.948719024658203,-29.975582122802734,988.766845703125,-0.133514404296875,0.007629394065588713,0.064849853515625
2024-03-11 10:40:59.822403493,-16.056167602539062,-21.367523193359375,988.1563110351562,0.1182556077837944,0.015258788131177425,0.125885009765625
2024-03-11 10:40:59.832782128,-16.056167602539062,-21.367523193359375,988.1563110351562,0.1182556077837944,0.015258788131177425,0.125885009765625
2024-03-11 10:40:59.842826799,-17.155067443847656,-27.899879455566406,982.1123657226562,0.1907348483800888,-0.072479248046875,0.0610351525247097
2024-03-11 10:40:59.853169334,-17.155067443847656,-27.899879455566406,982.1123657226562,0.1907348483800888,-0.072479248046875,0.0610351525247097
2024-03-11 10:40:59.863320247,-17.155067443847656,-27.899879455566406,982.1123657226562,0.1907348483800888,-0.072479248046875,0.0610351525247097
2024-03-11 10:40:59.873595714,-12.698412895202637,-27.35042953491211,980.769287109375,0.0572204552590847,-0.0419616661965847,0.0534057579934597
2024-03-11 10:40:59.883888432,-17.338218688964844,-22.283273696899414,980.5861206054688,-0.0038146970327943563,-0.1182556077837944,0.0038146970327943563
2024-03-11 10:40:59.893964298,-17.338218688964844,-22.283273696899414,980.5861206054688,-0.0038146970327943563,-0.1182556077837944,0.0038146970327943563
2024-03-11 10:40:59.904088810,-17.948719024658203,-25.091575622558594,983.3944091796875,0.308990478515625,-0.152587890625,0.0839233323931694
2024-03-11 10:40:59.914314867,-17.948719024658203,-25.091575622558594,983.3944091796875,0.308990478515625,-0.152587890625,0.0839233323931694
2024-03-11 10:40:59.924647265,-13.55311393737793,-22.52747344970703,976.1905517578125,0.148773193359375,-0.1106262132525444,0.148773193359375
2024-03-11 10:40:59.934842846,-13.55311393737793,-22.52747344970703,976.1905517578125,0.148773193359375,-0.1106262132525444,0.148773193359375
2024-03-11 10:40:59.945084811,-14.468865394592285,-22.893774032592773,982.9671020507812,0.1716613620519638,0.019073486328125,0.0572204552590847
2024-03-11 10:40:59.955300348,-14.468865394592285,-22.893774032592773,982.9671020507812,0.1716613620519638,0.019073486328125,0.0572204552590847
2024-03-11 10:40:59.965421600,-17.826618194580078,-24.114774703979492,977.1672973632812,-0.12969970703125,-0.1945495456457138,0.0915527269244194
2024-03-11 10:40:59.975570849,-8.852259635925293,-24.29792594909668,980.6471557617188,0.255584716796875,-0.064849853515625,0.0991821214556694
2024-03-11 10:40:59.985740893,-8.852259635925293,-24.29792594909668,980.6471557617188,0.255584716796875,-0.064849853515625,0.0991821214556694
2024-03-11 10:40:59.996208847,-14.835165977478027,-23.626375198364258,978.1441040039062,0.034332275390625,-0.015258788131177425,-0.007629394065588713
2024-03-11 10:41:00.006339923,-14.835165977478027,-23.626375198364258,978.1441040039062,0.034332275390625,-0.015258788131177425,-0.007629394065588713
2024-03-11 10:41:00.016691490,-24.60317611694336,-23.565324783325195,978.0830688476562,0.1182556077837944,0.0572204552590847,0.0610351525247097
2024-03-11 10:41:00.026734969,-24.60317611694336,-23.565324783325195,978.0830688476562,0.1182556077837944,0.0572204552590847,0.0610351525247097
2024-03-11 10:41:00.037020827,-17.765567779541016,-32.35653305053711,988.3394775390625,0.06866455078125,0.0419616661965847,0.034332275390625
2024-03-11 10:41:00.047241552,-11.782662391662598,-26.251527786254883,981.4408569335938,-0.034332275390625,0.019073486328125,0.0038146970327943563
2024-03-11 10:41:00.057396017,-11.782662391662598,-26.251527786254883,981.4408569335938,-0.034332275390625,0.019073486328125,0.0038146970327943563
2024-03-11 10:41:00.067786945,-11.111111640930176,-26.007328033447266,980.891357421875,-0.156402587890625,-0.0534057579934597,0.0495910607278347
2024-03-11 10:41:00.077784182,-11.111111640930176,-26.007328033447266,980.891357421875,-0.156402587890625,-0.0534057579934597,0.0495910607278347
2024-03-11 10:41:00.087971400,-15.750916481018066,-26.434677124023438,987.2406005859375,0.1144409105181694,-0.0839233323931694,0.007629394065588713
2024-03-11 10:41:00.098103638,-15.750916481018066,-26.434677124023438,987.2406005859375,0.1144409105181694,-0.0839233323931694,0.007629394065588713
2024-03-11 10:41:00.108272407,-20.390722274780273,-24.786325454711914,981.68505859375,-0.02670287899672985,-0.1182556077837944,-0.015258788131177425
2024-03-11 10:41:00.118477008,-20.390722274780273,-24.786325454711914,981.68505859375,-0.02670287899672985,-0.1182556077837944,-0.015258788131177425
2024-03-11 10:41:00.128663672,-15.018315315246582,-27.96092987060547,988.0342407226562,0.0457763634622097,-0.2021789401769638,0.0762939453125
2024-03-11 10:41:00.138814102,-16.361417770385742,-29.181930541992188,983.3333740234375,0.1792907565832138,-0.2021789401769638,-0.0457763634622097
2024-03-11 10:41:00.152043176,-16.361417770385742,-29.181930541992188,983.3333740234375,0.1792907565832138,-0.2021789401769638,-0.0457763634622097
2024-03-11 10:41:00.162200109,-15.323566436767578,-28.449329376220703,979.2430419921875,0.015258788131177425,0.0572204552590847,0.1068115159869194
2024-03-11 10:41:00.172450785,-17.155067443847656,-27.289379119873047,980.0366821289062,0.278472900390625,-0.0877380296587944,0.1068115159869194
2024-03-11 10:41:00.182623061,-17.155067443847656,-27.289379119873047,980.0366821289062,0.278472900390625,-0.0877380296587944,0.1068115159869194
2024-03-11 10:41:00.192826269,-12.94261360168457,-25.824176788330078,984.859619140625,-0.0038146970327943563,-0.0839233323931694,0.0495910607278347
2024-03-11 10:41:00.203043708,-12.94261360168457,-25.824176788330078,984.859619140625,-0.0038146970327943563,-0.0839233323931694,0.0495910607278347
2024-03-11 10:41:00.218429824,-14.285715103149414,-26.862028121948242,984.0049438476562,-0.0495910607278347,-0.1640319675207138,0.1792907565832138
2024-03-11 10:41:00.228636793,-14.285715103149414,-26.862028121948242,984.0049438476562,-0.0495910607278347,-0.1640319675207138,0.1792907565832138
2024-03-11 10:41:00.238932837,-15.567766189575195,-25.641027450561523,977.1672973632812,-0.019073486328125,-0.06866455078125,0.02288818173110485
2024-03-11 10:41:00.248977975,-15.567766189575195,-25.641027450561523,977.1672973632812,-0.019073486328125,-0.06866455078125,0.02288818173110485
2024-03-11 10:41:00.259144564,-15.750916481018066,-26.556777954101562,984.798583984375,-0.0038146970327943563,-0.0762939453125,-0.019073486328125
2024-03-11 10:41:00.269320916,-17.826618194580078,-26.862028121948242,986.0806274414062,0.02670287899672985,0.1182556077837944,0.0495910607278347
2024-03-11 10:41:00.279723059,-17.826618194580078,-26.862028121948242,986.0806274414062,0.02670287899672985,0.1182556077837944,0.0495910607278347
2024-03-11 10:41:00.289888587,-18.070819854736328,-26.434677124023438,984.6154174804688,0.0762939453125,-0.1792907565832138,-0.0534057579934597
2024-03-11 10:41:00.300128210,-18.070819854736328,-26.434677124023438,984.6154174804688,0.0762939453125,-0.1792907565832138,-0.0534057579934597
2024-03-11 10:41:00.310254345,-13.614164352416992,-30.097681045532227,986.9963989257812,0.1678466647863388,-0.1182556077837944,0.1029968187212944
2024-03-11 10:41:00.320547163,-13.614164352416992,-30.097681045532227,986.9963989257812,0.1678466647863388,-0.1182556077837944,0.1029968187212944
2024-03-11 10:41:00.330669748,-21.55067253112793,-26.862028121948242,983.0891723632812,-0.0839233323931694,0.0419616661965847,0.034332275390625
2024-03-11 10:41:00.340809523,-21.55067253112793,-26.862028121948242,983.0891723632812,-0.0839233323931694,0.0419616661965847,0.034332275390625
2024-03-11 10:41:00.351077000,-15.262516021728516,-32.84493637084961,976.801025390625,0.1068115159869194,0.0038146970327943563,0.034332275390625
2024-03-11 10:41:00.361178778,-15.262516021728516,-32.84493637084961,976.801025390625,0.1068115159869194,0.0038146970327943563,0.034332275390625
2024-03-11 10:41:00.371344907,-16.849817276000977,-24.114774703979492,989.0720825195312,-0.0038146970327943563,-0.1831054538488388,0.0991821214556694
2024-03-11 10:41:00.381480341,-18.437118530273438,-23.076923370361328,979.91455078125,0.141143798828125,0.015258788131177425,-0.0534057579934597
2024-03-11 10:41:00.391714737,-18.437118530273438,-23.076923370361328,979.91455078125,0.141143798828125,0.015258788131177425,-0.0534057579934597
2024-03-11 10:41:00.402022212,-12.881563186645508,-25.152626037597656,988.6447143554688,0.125885009765625,-0.141143798828125,0.06866455078125
2024-03-11 10:41:00.412081296,-12.881563186645508,-25.152626037597656,988.6447143554688,0.125885009765625,-0.141143798828125,0.06866455078125
2024-03-11 10:41:00.422240701,-12.45421314239502,-24.72527503967285,983.5775756835938,0.015258788131177425,0.0534057579934597,0.14495849609375
2024-03-11 10:41:00.432368203,-12.45421314239502,-24.72527503967285,983.5775756835938,0.015258788131177425,0.0534057579934597,0.14495849609375
2024-03-11 10:41:00.442609729,-15.323566436767578,-24.481075286865234,979.9756469726562,0.1068115159869194,-0.06866455078125,0.141143798828125
2024-03-11 10:41:00.452661391,-14.407814979553223,-34.981685638427734,975.76318359375,0.2174377292394638,0.0495910607278347,0.0
2024-03-11 10:41:00.462877398,-14.407814979553223,-34.981685638427734,975.76318359375,0.2174377292394638,0.0495910607278347,0.0
2024-03-11 10:41:00.473118347,-19.536020278930664,-27.899879455566406,978.1441040039062,-0.1373291015625,-0.1068115159869194,0.072479248046875
2024-03-11 10:41:00.483241205,-15.628816604614258,-25.335777282714844,978.1441040039062,0.0457763634622097,0.064849853515625,-0.0457763634622097
2024-03-11 10:41:00.493434807,-15.628816604614258,-25.335777282714844,978.1441040039062,0.0457763634622097,0.064849853515625,-0.0457763634622097
2024-03-11 10:41:00.503669833,-16.30036735534668,-26.984128952026367,978.876708984375,0.1182556077837944,0.03051757626235485,-0.019073486328125
2024-03-11 10:41:00.513810935,-16.30036735534668,-26.984128952026367,978.876708984375,0.1182556077837944,0.03051757626235485,-0.019073486328125
2024-03-11 10:41:00.523953240,-18.620269775390625,-28.205129623413086,982.906005859375,0.148773193359375,-0.03814697265625,0.0610351525247097
2024-03-11 10:41:00.534176807,-18.620269775390625,-28.205129623413086,982.906005859375,0.148773193359375,-0.03814697265625,0.0610351525247097
2024-03-11 10:41:00.544323081,-17.58241844177246,-30.402931213378906,984.859619140625,-0.064849853515625,-0.007629394065588713,0.0915527269244194
2024-03-11 10:41:00.555873246,-17.27716827392578,-31.44078254699707,985.4090576171875,0.015258788131177425,0.03814697265625,-0.019073486328125
2024-03-11 10:41:00.566077271,-17.27716827392578,-31.44078254699707,985.4090576171875,0.015258788131177425,0.03814697265625,-0.019073486328125
2024-03-11 10:41:00.576327866,-8.60805892944336,-26.373628616333008,981.74609375,0.064849853515625,-0.125885009765625,0.2288818210363388
2024-03-11 10:41:00.586482546,-19.10866928100586,-26.068376541137695,983.82177734375,0.1792907565832138,0.0419616661965847,-0.0839233323931694
2024-03-11 10:41:00.596696969,-19.10866928100586,-26.068376541137695,983.82177734375,0.1792907565832138,0.0419616661965847,-0.0839233323931694
2024-03-11 10:41:00.606942326,-20.63492202758789,-26.129426956176758,979.1820068359375,0.034332275390625,-0.0572204552590847,0.0572204552590847
2024-03-11 10:41:00.617089825,-20.757020950317383,-26.373628616333008,981.5018920898438,0.06866455078125,-0.1945495456457138,0.286102294921875
2024-03-11 10:41:00.627460209,-20.757020950317383,-26.373628616333008,981.5018920898438,0.06866455078125,-0.1945495456457138,0.286102294921875
2024-03-11 10:41:00.637529556,-16.422468185424805,-34.92063522338867,976.1905517578125,0.152587890625,-0.019073486328125,0.0801086351275444
2024-03-11 10:41:00.647696161,-16.422468185424805,-34.92063522338867,976.1905517578125,0.152587890625,-0.019073486328125,0.0801086351275444
2024-03-11 10:41:00.657830536,-9.768010139465332,-25.335777282714844,987.6068725585938,0.1869201511144638,-0.03814697265625,-0.1182556077837944
2024-03-11 10:41:00.668052721,-9.768010139465332,-25.335777282714844,987.6068725585938,0.1869201511144638,-0.03814697265625,-0.1182556077837944
2024-03-11 10:41:00.678150560,-16.483516693115234,-22.83272361755371,978.3272705078125,-0.03051757626235485,-0.015258788131177425,0.0038146970327943563
2024-03-11 10:41:00.688475211,-10.561660766601562,-28.754579544067383,979.79248046875,0.02288818173110485,-0.0419616661965847,0.0534057579934597
2024-03-11 10:41:00.698577097,-10.561660766601562,-28.754579544067383,979.79248046875,0.02288818173110485,-0.0419616661965847,0.0534057579934597
2024-03-11 10:41:00.708672851,-14.713065147399902,-22.46642303466797,977.9609985351562,0.072479248046875,-0.019073486328125,0.0
2024-03-11 10:41:00.718951295,-14.713065147399902,-22.46642303466797,977.9609985351562,0.072479248046875,-0.019073486328125,0.0
2024-03-11 10:41:00.729010095,-20.207571029663086,-31.868133544921875,984.0049438476562,0.26702880859375,-0.02670287899672985,0.0534057579934597
2024-03-11 10:41:00.739204315,-20.207571029663086,-31.868133544921875,984.0049438476562,0.26702880859375,-0.02670287899672985,0.0534057579934597
2024-03-11 10:41:00.749362330,-9.768010139465332,-23.565324783325195,980.4640502929688,-0.2098083347082138,-0.2136230319738388,-0.0419616661965847
2024-03-11 10:41:00.759590076,-12.332113265991211,-26.862028121948242,976.0073852539062,0.1907348483800888,-0.0877380296587944,-0.0915527269244194
2024-03-11 10:41:00.769769540,-12.332113265991211,-26.862028121948242,976.0073852539062,0.1907348483800888,-0.0877380296587944,-0.0915527269244194
2024-03-11 10:41:00.780055213,-18.376070022583008,-24.29792594909668,974.786376953125,0.1182556077837944,0.14495849609375,-0.0991821214556694
2024-03-11 10:41:00.790109093,-18.376070022583008,-24.29792594909668,974.786376953125,0.1182556077837944,0.14495849609375,-0.0991821214556694
2024-03-11 10:41:00.800730832,-16.788766860961914,-28.754579544067383,984.5543823242188,0.0610351525247097,0.0762939453125,0.019073486328125
2024-03-11 10:41:00.810858453,-16.788766860961914,-28.754579544067383,984.5543823242188,0.0610351525247097,0.0762939453125,0.019073486328125
2024-03-11 10:41:00.821102139,-12.210012435913086,-28.144079208374023,981.5629272460938,0.0419616661965847,0.0877380296587944,-0.1144409105181694
2024-03-11 10:41:00.831222997,-12.210012435913086,-28.144079208374023,981.5629272460938,0.0419616661965847,0.0877380296587944,-0.1144409105181694
2024-03-11 10:41:00.841381135,-14.835165977478027,-24.90842628479004,986.752197265625,0.0610351525247097,0.0762939453125,0.011444090865552425
2024-03-11 10:41:00.851633493,-19.65812110900879,-27.167278289794922,976.2515869140625,0.019073486328125,0.011444090865552425,0.0038146970327943563
2024-03-11 10:41:00.861726545,-19.65812110900879,-27.167278289794922,976.2515869140625,0.019073486328125,0.011444090865552425,0.0038146970327943563
2024-03-11 10:41:00.871927755,-12.7594633102417,-27.35042953491211,976.1294555664062,0.02288818173110485,0.011444090865552425,0.0915527269244194
2024-03-11 10:41:00.882135476,-12.7594633102417,-27.35042953491211,976.1294555664062,0.02288818173110485,0.011444090865552425,0.0915527269244194
2024-03-11 10:41:00.892256145,-16.727718353271484,-28.876680374145508,982.6007690429688,-0.125885009765625,-0.0534057579934597,0.1106262132525444
2024-03-11 10:41:00.905114658,-16.666667938232422,-26.068376541137695,988.2784423828125,-0.03051757626235485,-0.072479248046875,-0.1029968187212944
2024-03-11 10:41:00.915303435,-16.666667938232422,-26.068376541137695,988.2784423828125,-0.03051757626235485,-0.072479248046875,-0.1029968187212944
2024-03-11 10:41:00.925508734,-16.239316940307617,-21.85592269897461,987.1184692382812,0.0953674241900444,-0.0572204552590847,-0.0495910607278347
2024-03-11 10:41:00.935752111,-16.239316940307617,-21.85592269897461,987.1184692382812,0.0953674241900444,-0.0572204552590847,-0.0495910607278347
2024-03-11 10:41:00.945880971,-10.500611305236816,-25.763126373291016,981.1355590820312,-0.064849853515625,-0.0534057579934597,-0.019073486328125
2024-03-11 10:41:00.956048591,-10.500611305236816,-25.763126373291016,981.1355590820312,-0.064849853515625,-0.0534057579934597,-0.019073486328125
2024-03-11 10:41:00.966293806,-16.30036735534668,-27.167278289794922,985.4090576171875,0.02288818173110485,0.03814697265625,0.1678466647863388
2024-03-11 10:41:00.976575651,-16.30036735534668,-27.167278289794922,985.4090576171875,0.02288818173110485,0.03814697265625,0.1678466647863388
2024-03-11 10:41:00.986749285,-23.809524536132812,-29.181930541992188,980.4029541015625,0.0038146970327943563,-0.0572204552590847,0.1220703050494194
2024-03-11 10:41:00.996953292,-12.63736343383789,-27.41147804260254,978.3272705078125,0.148773193359375,0.0419616661965847,0.072479248046875
2024-03-11 10:41:01.007182126,-12.63736343383789,-27.41147804260254,978.3272705078125,0.148773193359375,0.0419616661965847,0.072479248046875
2024-03-11 10:41:01.017342510,-13.369963645935059,-23.68742561340332,987.72900390625,0.015258788131177425,0.133514404296875,0.072479248046875
2024-03-11 10:41:01.027522503,-13.369963645935059,-23.68742561340332,987.72900390625,0.015258788131177425,0.133514404296875,0.072479248046875
2024-03-11 10:41:01.037799438,-15.018315315246582,-23.626375198364258,988.4616088867188,0.0762939453125,-0.25177001953125,-0.148773193359375
2024-03-11 10:41:01.047838292,-15.018315315246582,-23.626375198364258,988.4616088867188,0.0762939453125,-0.25177001953125,-0.148773193359375
2024-03-11 10:41:01.058278162,-6.5323567390441895,-25.763126373291016,969.7802734375,-0.03051757626235485,-0.0572204552590847,0.0457763634622097
2024-03-11 10:41:01.068276203,-6.5323567390441895,-25.763126373291016,969.7802734375,-0.03051757626235485,-0.0572204552590847,0.0457763634622097
2024-03-11 10:41:01.078533088,-10.256410598754883,-33.45543670654297,983.3944091796875,-0.0915527269244194,-0.2365112155675888,-0.011444090865552425
2024-03-11 10:41:01.088887319,-10.256410598754883,-33.45543670654297,983.3944091796875,-0.0915527269244194,-0.2365112155675888,-0.011444090865552425
2024-03-11 10:41:01.099115335,-16.9719181060791,-27.4725284576416,976.1294555664062,-0.0915527269244194,-0.0839233323931694,0.03051757626235485
2024-03-11 10:41:01.109290564,-16.9719181060791,-27.4725284576416,976.1294555664062,-0.0915527269244194,-0.0839233323931694,0.03051757626235485
2024-03-11 10:41:01.120383601,-12.087912559509277,-25.457876205444336,977.5946655273438,0.1983642429113388,-0.1029968187212944,-0.015258788131177425
2024-03-11 10:41:01.130593396,-18.80341911315918,-29.487180709838867,983.6386108398438,0.1182556077837944,0.019073486328125,-0.019073486328125
2024-03-11 10:41:01.140731901,-18.80341911315918,-29.487180709838867,983.6386108398438,0.1182556077837944,0.019073486328125,-0.019073486328125
2024-03-11 10:41:01.151071716,-15.201465606689453,-26.19047737121582,979.2430419921875,0.2098083347082138,-0.0915527269244194,0.0572204552590847
2024-03-11 10:41:01.161599283,-17.21611785888672,-30.341882705688477,984.6154174804688,0.0534057579934597,0.1640319675207138,0.02670287899672985
2024-03-11 10:41:01.171842759,-17.21611785888672,-30.341882705688477,984.6154174804688,0.0534057579934597,0.1640319675207138,0.02670287899672985
2024-03-11 10:41:01.182184407,-18.131868362426758,-27.04517936706543,982.5397338867188,0.007629394065588713,-0.03814697265625,0.1182556077837944
2024-03-11 10:41:01.192426652,-18.131868362426758,-27.04517936706543,982.5397338867188,0.007629394065588713,-0.03814697265625,0.1182556077837944
2024-03-11 10:41:01.202557699,-15.018315315246582,-25.946277618408203,980.9524536132812,0.03051757626235485,0.0915527269244194,-0.0495910607278347
2024-03-11 10:41:01.212853078,-15.628816604614258,-28.144079208374023,983.4555053710938,0.0,0.0,0.1068115159869194
2024-03-11 10:41:01.223131307,-15.628816604614258,-28.144079208374023,983.4555053710938,0.0,0.0,0.1068115159869194
2024-03-11 10:41:01.233169913,-10.012210845947266,-27.4725284576416,980.4029541015625,0.2174377292394638,-0.1182556077837944,-0.007629394065588713
2024-03-11 10:41:01.243418361,-14.652015686035156,-31.074481964111328,976.739990234375,0.0762939453125,-0.14495849609375,-0.03051757626235485
2024-03-11 10:41:01.253598935,-14.652015686035156,-31.074481964111328,976.739990234375,0.0762939453125,-0.14495849609375,-0.03051757626235485
2024-03-11 10:41:01.263816388,-15.445666313171387,-25.5189266204834,976.6178588867188,0.286102294921875,-0.011444090865552425,0.02670287899672985
2024-03-11 10:41:01.273883066,-15.445666313171387,-25.5189266204834,976.6178588867188,0.286102294921875,-0.011444090865552425,0.02670287899672985
2024-03-11 10:41:01.284107328,-23.74847412109375,-25.5189266204834,981.0745239257812,-0.0419616661965847,0.0495910607278347,-0.0610351525247097
2024-03-11 10:41:01.294238598,-17.21611785888672,-23.504274368286133,980.891357421875,0.03814697265625,-0.14495849609375,0.25177001953125
2024-03-11 10:41:01.304493825,-17.21611785888672,-23.504274368286133,980.891357421875,0.03814697265625,-0.14495849609375,0.25177001953125
2024-03-11 10:41:01.314651735,-16.056167602539062,-28.510379791259766,979.67041015625,0.0991821214556694,0.0991821214556694,-0.1373291015625
2024-03-11 10:41:01.324930023,-20.451770782470703,-32.29548263549805,985.4701538085938,0.1983642429113388,-0.1869201511144638,0.0419616661965847
2024-03-11 10:41:01.335232641,-20.451770782470703,-32.29548263549805,985.4701538085938,0.1983642429113388,-0.1869201511144638,0.0419616661965847
2024-03-11 10:41:01.345354908,-17.460317611694336,-24.9694766998291,982.9671020507812,0.0953674241900444,0.007629394065588713,0.0991821214556694
2024-03-11 10:41:01.355584110,-17.460317611694336,-24.9694766998291,982.9671020507812,0.0953674241900444,0.007629394065588713,0.0991821214556694
2024-03-11 10:41:01.365709618,-19.96337127685547,-23.99267578125,983.3944091796875,-0.0495910607278347,-0.011444090865552425,0.0534057579934597
2024-03-11 10:41:01.376171127,-19.96337127685547,-23.99267578125,983.3944091796875,-0.0495910607278347,-0.011444090865552425,0.0534057579934597
2024-03-11 10:41:01.386522895,-18.070819854736328,-25.152626037597656,981.1355590820312,0.06866455078125,-0.06866455078125,0.14495849609375
2024-03-11 10:41:01.396701448,-18.070819854736328,-25.152626037597656,981.1355590820312,0.06866455078125,-0.06866455078125,0.14495849609375
2024-03-11 10:41:01.406892324,-15.140416145324707,-24.542125701904297,980.5250854492188,0.1831054538488388,0.034332275390625,0.03051757626235485
2024-03-11 10:41:01.417067522,-20.32967185974121,-35.77533721923828,986.9963989257812,-0.02288818173110485,0.0991821214556694,-0.0877380296587944
2024-03-11 10:41:01.427321899,-20.32967185974121,-35.77533721923828,986.9963989257812,-0.02288818173110485,0.0991821214556694,-0.0877380296587944
2024-03-11 10:41:01.437641616,-20.879121780395508,-25.091575622558594,980.2198486328125,-0.141143798828125,0.06866455078125,-0.0839233323931694
2024-03-11 10:41:01.448013631,-11.050061225891113,-23.076923370361328,983.0891723632812,0.148773193359375,0.1831054538488388,0.152587890625
2024-03-11 10:41:01.458113530,-11.050061225891113,-23.076923370361328,983.0891723632812,0.148773193359375,0.1831054538488388,0.152587890625
2024-03-11 10:41:01.468451048,-17.826618194580078,-23.99267578125,975.76318359375,0.034332275390625,-0.02670287899672985,0.12969970703125
2024-03-11 10:41:01.478612984,-14.590965270996094,-24.114774703979492,978.0220336914062,0.0457763634622097,-0.06866455078125,0.152587890625
2024-03-11 10:41:01.489358263,-14.590965270996094,-24.114774703979492,978.0220336914062,0.0457763634622097,-0.06866455078125,0.152587890625
2024-03-11 10:41:01.499494882,-10.561660766601562,-23.321125030517578,978.2662353515625,0.0762939453125,-0.0610351525247097,0.007629394065588713
2024-03-11 10:41:01.509712720,-10.561660766601562,-23.321125030517578,978.2662353515625,0.0762939453125,-0.0610351525247097,0.007629394065588713
2024-03-11 10:41:01.519949915,-6.410256862640381,-28.02198028564453,992.796142578125,-0.03051757626235485,-0.019073486328125,0.1182556077837944
2024-03-11 10:41:01.530031438,-17.5213680267334,-29.670331954956055,975.9463500976562,0.2174377292394638,-0.0572204552590847,0.2365112155675888
2024-03-11 10:41:01.540401662,-17.5213680267334,-29.670331954956055,975.9463500976562,0.2174377292394638,-0.0572204552590847,0.2365112155675888
2024-03-11 10:41:01.550554358,-16.178266525268555,-33.089134216308594,976.9841918945312,0.1754760593175888,0.019073486328125,0.019073486328125
2024-03-11 10:41:01.560861723,-13.980464935302734,-27.533578872680664,978.5104370117188,-0.0610351525247097,-0.1029968187212944,-0.1106262132525444
2024-03-11 10:41:01.571048163,-13.980464935302734,-27.533578872680664,978.5104370117188,-0.0610351525247097,-0.1029968187212944,-0.1106262132525444
2024-03-11 10:41:01.581183636,-17.704519271850586,-26.251527786254883,984.4933471679688,0.0762939453125,-0.125885009765625,0.133514404296875
2024-03-11 10:41:01.591740560,-17.704519271850586,-26.251527786254883,984.4933471679688,0.0762939453125,-0.125885009765625,0.133514404296875
2024-03-11 10:41:01.601875293,-19.169719696044922,-28.93773078918457,983.8828125,-0.0839233323931694,-0.3547668159008026,-0.06866455078125
2024-03-11 10:41:01.611999955,-12.94261360168457,-21.489622116088867,978.2662353515625,0.064849853515625,-0.0877380296587944,-0.03814697265625
2024-03-11 10:41:01.622182249,-12.94261360168457,-21.489622116088867,978.2662353515625,0.064849853515625,-0.0877380296587944,-0.03814697265625
2024-03-11 10:41:01.632310066,-9.09645938873291,-31.13553237915039,984.0659790039062,0.14495849609375,0.255584716796875,0.1106262132525444
2024-03-11 10:41:01.642580385,-9.09645938873291,-31.13553237915039,984.0659790039062,0.14495849609375,0.255584716796875,0.1106262132525444
2024-03-11 10:41:01.652700529,-16.056167602539062,-21.794872283935547,986.0806274414062,-0.0457763634622097,-0.0801086351275444,-0.011444090865552425
2024-03-11 10:41:01.662863079,-9.89011001586914,-27.96092987060547,981.9292602539062,-0.1182556077837944,0.1640319675207138,0.1373291015625
2024-03-11 10:41:01.673019248,-9.89011001586914,-27.96092987060547,981.9292602539062,-0.1182556077837944,0.1640319675207138,0.1373291015625
2024-03-11 10:41:01.683226208,-13.308914184570312,-28.63248062133789,977.716796875,-0.02288818173110485,-0.1144409105181694,-0.1640319675207138
2024-03-11 10:41:01.693414676,-13.308914184570312,-28.63248062133789,977.716796875,-0.02288818173110485,-0.1144409105181694,-0.1640319675207138
2024-03-11 10:41:01.703763441,-16.666667938232422,-34.004886627197266,983.3944091796875,0.03051757626235485,-0.2326965183019638,-0.06866455078125
2024-03-11 10:41:01.713819278,-16.666667938232422,-34.004886627197266,983.3944091796875,0.03051757626235485,-0.2326965183019638,-0.06866455078125
2024-03-11 10:41:01.724090341,-6.837607383728027,-35.470088958740234,981.6239624023438,-0.1869201511144638,-0.0038146970327943563,0.0762939453125
2024-03-11 10:41:01.734408960,-6.837607383728027,-35.470088958740234,981.6239624023438,-0.1869201511144638,-0.0038146970327943563,0.0762939453125
2024-03-11 10:41:01.744656742,-11.721611976623535,-27.04517936706543,986.2637939453125,0.0419616661965847,-0.0419616661965847,-0.0877380296587944
2024-03-11 10:41:01.754896116,-11.721611976623535,-27.04517936706543,986.2637939453125,0.0419616661965847,-0.0419616661965847,-0.0877380296587944
2024-03-11 10:41:01.764918533,-13.24786376953125,-28.38827896118164,992.1856689453125,-0.02670287899672985,0.0801086351275444,0.141143798828125
2024-03-11 10:41:01.775127218,-15.140416145324707,-21.794872283935547,976.0684204101562,0.0610351525247097,0.1983642429113388,0.3547668159008026
2024-03-11 10:41:01.785350676,-15.140416145324707,-21.794872283935547,976.0684204101562,0.0610351525247097,0.1983642429113388,0.3547668159008026
2024-03-11 10:41:01.795658614,-4.761905193328857,-27.96092987060547,969.5360717773438,0.0877380296587944,0.0762939453125,-0.0839233323931694
2024-03-11 10:41:01.805736820,-4.761905193328857,-27.96092987060547,969.5360717773438,0.0877380296587944,0.0762939453125,-0.0839233323931694
2024-03-11 10:41:01.816121405,-13.614164352416992,-24.90842628479004,971.73388671875,-0.1029968187212944,0.0495910607278347,0.1716613620519638
2024-03-11 10:41:01.826317086,-13.614164352416992,-24.90842628479004,971.73388671875,-0.1029968187212944,0.0495910607278347,0.1716613620519638
2024-03-11 10:41:01.836468998,-13.369963645935059,-24.29792594909668,983.1502075195312,-0.011444090865552425,0.1754760593175888,0.2059936374425888
2024-03-11 10:41:01.846690791,-16.178266525268555,-19.902320861816406,986.9963989257812,-0.0038146970327943563,0.12969970703125,0.3433227241039276
2024-03-11 10:41:01.856785824,-16.178266525268555,-19.902320861816406,986.9963989257812,-0.0038146970327943563,0.12969970703125,0.3433227241039276
2024-03-11 10:41:01.867042890,-19.35287094116211,-29.85348129272461,993.9561157226562,0.015258788131177425,-0.0572204552590847,0.1983642429113388
2024-03-11 10:41:01.877298717,-19.35287094116211,-29.85348129272461,993.9561157226562,0.015258788131177425,-0.0572204552590847,0.1983642429113388
2024-03-11 10:41:01.887358169,-14.835165977478027,-24.72527503967285,982.722900390625,-0.2021789401769638,0.011444090865552425,-0.06866455078125
2024-03-11 10:41:01.897706333,-18.009769439697266,-35.897438049316406,1000.3052978515625,0.03051757626235485,0.1373291015625,0.0038146970327943563
2024-03-11 10:41:01.907867246,-18.009769439697266,-35.897438049316406,1000.3052978515625,0.03051757626235485,0.1373291015625,0.0038146970327943563
2024-03-11 10:41:01.918032377,-17.643468856811523,-14.224664688110352,970.1465454101562,-0.1068115159869194,0.2326965183019638,-0.0610351525247097
2024-03-11 10:41:01.928277068,-17.643468856811523,-14.224664688110352,970.1465454101562,-0.1068115159869194,0.2326965183019638,-0.0610351525247097
2024-03-11 10:41:01.938523892,-17.27716827392578,-32.17338562011719,973.9927368164062,0.019073486328125,-0.034332275390625,-0.03814697265625
2024-03-11 10:41:01.948578827,-17.27716827392578,-32.17338562011719,973.9927368164062,0.019073486328125,-0.034332275390625,-0.03814697265625
2024-03-11 10:41:01.959053201,-13.675214767456055,-26.678878784179688,976.5568237304688,-0.019073486328125,-0.125885009765625,0.0534057579934597
2024-03-11 10:41:01.969457589,-16.788766860961914,-8.60805892944336,974.4200439453125,0.072479248046875,0.2250671237707138,0.0534057579934597
2024-03-11 10:41:01.979895384,-16.788766860961914,-8.60805892944336,974.4200439453125,0.072479248046875,0.2250671237707138,0.0534057579934597
2024-03-11 10:41:01.990126567,-11.416361808776855,-19.35287094116211,971.85595703125,0.015258788131177425,0.0839233323931694,0.1983642429113388
2024-03-11 10:41:02.000279219,-11.416361808776855,-19.35287094116211,971.85595703125,0.015258788131177425,0.0839233323931694,0.1983642429113388
2024-03-11 10:41:02.010662586,-19.902320861816406,-25.824176788330078,955.4945678710938,-0.0953674241900444,-0.0762939453125,0.25177001953125
2024-03-11 10:41:02.021128382,-19.902320861816406,-25.824176788330078,955.4945678710938,-0.0953674241900444,-0.0762939453125,0.25177001953125
2024-03-11 10:41:02.031110833,-15.201465606689453,-27.71672821044922,985.5922241210938,0.0610351525247097,-0.03814697265625,0.152587890625
2024-03-11 10:41:02.041321970,-15.201465606689453,-27.71672821044922,985.5922241210938,0.0610351525247097,-0.03814697265625,0.152587890625
2024-03-11 10:41:02.051591344,-20.512821197509766,-32.478633880615234,986.813232421875,0.1144409105181694,0.064849853515625,-0.0839233323931694
2024-03-11 10:41:02.061723524,-23.44322395324707,-21.794872283935547,986.2027587890625,-0.019073486328125,-0.1640319675207138,-0.0915527269244194
2024-03-11 10:41:02.072023466,-23.44322395324707,-21.794872283935547,986.2027587890625,-0.019073486328125,-0.1640319675207138,-0.0915527269244194
2024-03-11 10:41:02.082399126,-16.422468185424805,-27.289379119873047,984.4323120117188,0.125885009765625,0.0991821214556694,0.011444090865552425
2024-03-11 10:41:02.092678880,-16.422468185424805,-27.289379119873047,984.4323120117188,0.125885009765625,0.0991821214556694,0.011444090865552425
2024-03-11 10:41:02.102798578,-16.422468185424805,-29.059829711914062,976.739990234375,0.1182556077837944,0.007629394065588713,-0.0915527269244194
2024-03-11 10:41:02.112940594,-17.399269104003906,-34.55433654785156,972.2222900390625,0.0991821214556694,-0.156402587890625,0.1983642429113388
2024-03-11 10:41:02.123225628,-17.399269104003906,-34.55433654785156,972.2222900390625,0.0991821214556694,-0.156402587890625,0.1983642429113388
2024-03-11 10:41:02.133493489,-11.538461685180664,-24.175825119018555,978.2662353515625,0.06866455078125,-0.156402587890625,0.0839233323931694
2024-03-11 10:41:02.143775230,-11.538461685180664,-24.175825119018555,978.2662353515625,0.06866455078125,-0.156402587890625,0.0839233323931694
2024-03-11 10:41:02.153984530,-23.321125030517578,-31.13553237915039,979.67041015625,0.1182556077837944,-0.1869201511144638,0.14495849609375
2024-03-11 10:41:02.164234826,-23.321125030517578,-31.13553237915039,979.67041015625,0.1182556077837944,-0.1869201511144638,0.14495849609375
2024-03-11 10:41:02.174486915,-9.157509803771973,-22.283273696899414,977.2894287109375,-0.0419616661965847,-0.011444090865552425,0.152587890625
2024-03-11 10:41:02.184793778,-15.201465606689453,-26.312578201293945,976.4957885742188,0.1182556077837944,-0.02670287899672985,0.1678466647863388
2024-03-11 10:41:02.195200102,-15.201465606689453,-26.312578201293945,976.4957885742188,0.1182556077837944,-0.02670287899672985,0.1678466647863388
2024-03-11 10:41:02.205455326,-16.422468185424805,-34.615386962890625,988.5836791992188,0.03814697265625,0.0839233323931694,0.0877380296587944
2024-03-11 10:41:02.215893641,-5.433455944061279,-26.068376541137695,986.813232421875,-0.133514404296875,0.125885009765625,0.03814697265625
2024-03-11 10:41:02.226133708,-5.433455944061279,-26.068376541137695,986.813232421875,-0.133514404296875,0.125885009765625,0.03814697265625
2024-03-11 10:41:02.236565494,-8.60805892944336,-26.617828369140625,989.6826171875,-0.0991821214556694,-0.019073486328125,0.14495849609375
2024-03-11 10:41:02.246938537,-8.60805892944336,-26.617828369140625,989.6826171875,-0.0991821214556694,-0.019073486328125,0.14495849609375
2024-03-11 10:41:02.257009552,-14.224664688110352,-23.199024200439453,981.6239624023438,0.0801086351275444,0.007629394065588713,0.011444090865552425
2024-03-11 10:41:02.267174568,-14.224664688110352,-23.199024200439453,981.6239624023438,0.0801086351275444,0.007629394065588713,0.011444090865552425
2024-03-11 10:41:02.277716821,-8.241758346557617,-26.373628616333008,986.5690307617188,-0.011444090865552425,0.152587890625,0.2212524265050888
2024-03-11 10:41:02.287855401,-16.544567108154297,-21.85592269897461,979.67041015625,-0.1182556077837944,0.0762939453125,-0.007629394065588713
2024-03-11 10:41:02.298328409,-16.544567108154297,-21.85592269897461,979.67041015625,-0.1182556077837944,0.0762939453125,-0.007629394065588713
2024-03-11 10:41:02.308590087,-16.361417770385742,-26.80097770690918,983.7607421875,-0.0572204552590847,-0.011444090865552425,0.1678466647863388
2024-03-11 10:41:02.319126242,-18.80341911315918,-29.85348129272461,976.3736572265625,0.06866455078125,0.2479553073644638,0.0610351525247097
2024-03-11 10:41:02.329679374,-18.80341911315918,-29.85348129272461,976.3736572265625,0.06866455078125,0.2479553073644638,0.0610351525247097
2024-03-11 10:41:02.340048040,-18.80341911315918,-29.85348129272461,976.3736572265625,0.06866455078125,0.2479553073644638,0.0610351525247097
2024-03-11 10:41:02.350474440,-13.675214767456055,-30.52503204345703,984.6154174804688,-0.02288818173110485,-0.0038146970327943563,0.1106262132525444
2024-03-11 10:41:02.360801208,-13.675214767456055,-30.52503204345703,984.6154174804688,-0.02288818173110485,-0.0038146970327943563,0.1106262132525444
2024-03-11 10:41:02.371156984,-12.271062850952148,-17.27716827392578,988.4005126953125,-0.1754760593175888,-0.072479248046875,0.02670287899672985
2024-03-11 10:41:02.381479775,-12.271062850952148,-17.27716827392578,988.4005126953125,-0.1754760593175888,-0.072479248046875,0.02670287899672985
2024-03-11 10:41:02.391574710,-16.91086769104004,-26.739927291870117,982.4786987304688,-0.1220703050494194,0.156402587890625,0.26702880859375
2024-03-11 10:41:02.401635204,-16.91086769104004,-26.739927291870117,982.4786987304688,-0.1220703050494194,0.156402587890625,0.26702880859375
2024-03-11 10:41:02.412055382,-19.536020278930664,-23.99267578125,981.1966552734375,0.133514404296875,0.064849853515625,-0.0762939453125
2024-03-11 10:41:02.422074924,-19.536020278930664,-23.99267578125,981.1966552734375,0.133514404296875,0.064849853515625,-0.0762939453125
2024-03-11 10:41:02.432249931,-17.155067443847656,-26.4957275390625,986.752197265625,0.015258788131177425,-0.0953674241900444,0.072479248046875
2024-03-11 10:41:02.442430989,-16.117216110229492,-24.90842628479004,975.76318359375,-0.02288818173110485,-0.015258788131177425,0.156402587890625
2024-03-11 10:41:02.452679219,-16.117216110229492,-24.90842628479004,975.76318359375,-0.02288818173110485,-0.015258788131177425,0.156402587890625
2024-03-11 10:41:02.462938030,-15.201465606689453,-29.365081787109375,978.3272705078125,0.03814697265625,0.0419616661965847,0.0801086351275444
2024-03-11 10:41:02.473043107,-15.201465606689453,-29.365081787109375,978.3272705078125,0.03814697265625,0.0419616661965847,0.0801086351275444
2024-03-11 10:41:02.483198452,-12.45421314239502,-27.167278289794922,973.3211669921875,-0.1907348483800888,0.1640319675207138,0.1640319675207138
2024-03-11 10:41:02.493327268,-21.062273025512695,-31.74603271484375,979.79248046875,0.125885009765625,0.0953674241900444,0.0762939453125
2024-03-11 10:41:02.504975030,-21.062273025512695,-31.74603271484375,979.79248046875,0.125885009765625,0.0953674241900444,0.0762939453125
2024-03-11 10:41:02.515138167,-16.9719181060791,-34.12698745727539,982.3565673828125,0.1373291015625,-0.1945495456457138,-0.015258788131177425
2024-03-11 10:41:02.525343522,-13.24786376953125,-30.708181381225586,979.853515625,-0.0495910607278347,-0.1182556077837944,0.0915527269244194
2024-03-11 10:41:02.535584832,-13.24786376953125,-30.708181381225586,979.853515625,-0.0495910607278347,-0.1182556077837944,0.0915527269244194
2024-03-11 10:41:02.545813052,-15.628816604614258,-17.155067443847656,984.9817504882812,0.0610351525247097,-0.0457763634622097,0.0839233323931694
2024-03-11 10:41:02.556007317,-15.628816604614258,-17.155067443847656,984.9817504882812,0.0610351525247097,-0.0457763634622097,0.0839233323931694
2024-03-11 10:41:02.566193127,-8.30280876159668,-28.571430206298828,977.4114990234375,0.02670287899672985,0.1983642429113388,0.1945495456457138
2024-03-11 10:41:02.576533857,-8.30280876159668,-28.571430206298828,977.4114990234375,0.02670287899672985,0.1983642429113388,0.1945495456457138
2024-03-11 10:41:02.586679177,-21.001222610473633,-17.643468856811523,992.4909057617188,0.0915527269244194,0.1831054538488388,-0.02670287899672985
2024-03-11 10:41:02.596929296,-20.94017219543457,-24.114774703979492,977.5946655273438,-0.0877380296587944,0.125885009765625,-0.034332275390625
2024-03-11 10:41:02.607126873,-20.94017219543457,-24.114774703979492,977.5946655273438,-0.0877380296587944,0.125885009765625,-0.034332275390625
2024-03-11 10:41:02.617430037,-14.468865394592285,-20.26862144470215,976.678955078125,0.0038146970327943563,0.0572204552590847,0.2441406100988388
2024-03-11 10:41:02.627549847,-14.468865394592285,-20.26862144470215,976.678955078125,0.0038146970327943563,0.0572204552590847,0.2441406100988388
2024-03-11 10:41:02.637759742,-14.346765518188477,-25.702077865600586,984.3712158203125,-0.1029968187212944,-0.1106262132525444,0.0839233323931694
2024-03-11 10:41:02.648047421,-14.346765518188477,-25.702077865600586,984.3712158203125,-0.1029968187212944,-0.1106262132525444,0.0839233323931694
2024-03-11 10:41:02.658293052,-4.395604610443115,-26.434677124023438,983.0281372070312,-0.034332275390625,-0.0419616661965847,0.0495910607278347
2024-03-11 10:41:02.668557375,-10.073260307312012,-30.83028221130371,975.1526489257812,-0.0534057579934597,0.0762939453125,0.0495910607278347
2024-03-11 10:41:02.678719520,-10.073260307312012,-30.83028221130371,975.1526489257812,-0.0534057579934597,0.0762939453125,0.0495910607278347
2024-03-11 10:41:02.689106659,-21.428571701049805,-30.280832290649414,980.9524536132812,0.06866455078125,0.1106262132525444,0.0495910607278347
2024-03-11 10:41:02.699192016,-21.428571701049805,-30.280832290649414,980.9524536132812,0.06866455078125,0.1106262132525444,0.0495910607278347
2024-03-11 10:41:02.709423247,-15.628816604614258,-37.91209030151367,992.3687744140625,-0.0762939453125,0.06866455078125,0.1716613620519638
2024-03-11 10:41:02.719685217,-15.628816604614258,-37.91209030151367,992.3687744140625,-0.0762939453125,0.06866455078125,0.1716613620519638
2024-03-11 10:41:02.729901045,-19.230770111083984,-34.06593704223633,972.710693359375,0.019073486328125,0.2098083347082138,-0.0991821214556694
2024-03-11 10:41:02.740103018,-19.230770111083984,-34.06593704223633,972.710693359375,0.019073486328125,0.2098083347082138,-0.0991821214556694
2024-03-11 10:41:02.750274896,-24.786325454711914,-27.289379119873047,979.0598754882812,0.2174377292394638,0.007629394065588713,0.1907348483800888
2024-03-11 10:41:02.760604882,-24.786325454711914,-27.289379119873047,979.0598754882812,0.2174377292394638,0.007629394065588713,0.1907348483800888
2024-03-11 10:41:02.770784268,-22.83272361755371,-21.428571701049805,978.3883056640625,0.125885009765625,-0.141143798828125,-0.02670287899672985
2024-03-11 10:41:02.781007677,-22.83272361755371,-21.428571701049805,978.3883056640625,0.125885009765625,-0.141143798828125,-0.02670287899672985
2024-03-11 10:41:02.791175255,-21.611722946166992,-18.376070022583008,974.4200439453125,0.0534057579934597,-0.007629394065588713,0.0915527269244194
2024-03-11 10:41:02.801395477,-21.611722946166992,-18.376070022583008,974.4200439453125,0.0534057579934597,-0.007629394065588713,0.0915527269244194
2024-03-11 10:41:02.811807145,-17.460317611694336,-17.338218688964844,981.68505859375,0.072479248046875,0.0,0.0419616661965847
2024-03-11 10:41:02.822028369,-15.384615898132324,-22.100122451782227,982.906005859375,0.14495849609375,-0.152587890625,-0.015258788131177425
2024-03-11 10:41:02.832174327,-15.384615898132324,-22.100122451782227,982.906005859375,0.14495849609375,-0.152587890625,-0.015258788131177425
2024-03-11 10:41:02.842494868,-6.776556968688965,-21.611722946166992,981.1966552734375,-0.12969970703125,-0.034332275390625,-0.0839233323931694
2024-03-11 10:41:02.852725234,-6.776556968688965,-21.611722946166992,981.1966552734375,-0.12969970703125,-0.034332275390625,-0.0839233323931694
2024-03-11 10:41:02.862859126,-6.776556968688965,-28.02198028564453,979.1820068359375,-0.1640319675207138,-0.0610351525247097,-0.0762939453125
2024-03-11 10:41:02.873000392,-6.776556968688965,-28.02198028564453,979.1820068359375,-0.1640319675207138,-0.0610351525247097,-0.0762939453125
2024-03-11 10:41:02.883247546,-8.547008514404297,-28.08302879333496,980.2198486328125,-0.0457763634622097,0.2250671237707138,0.1373291015625
2024-03-11 10:41:02.893447552,-8.547008514404297,-28.08302879333496,980.2198486328125,-0.0457763634622097,0.2250671237707138,0.1373291015625
2024-03-11 10:41:02.903721934,-18.253969192504883,-29.54823112487793,971.5507202148438,0.14495849609375,0.2288818210363388,0.007629394065588713
2024-03-11 10:41:02.913882782,-18.253969192504883,-29.54823112487793,971.5507202148438,0.14495849609375,0.2288818210363388,0.007629394065588713
2024-03-11 10:41:02.924062840,-23.199024200439453,-29.487180709838867,964.1026000976562,0.152587890625,-0.02670287899672985,0.0419616661965847
2024-03-11 10:41:02.934180333,-23.199024200439453,-29.487180709838867,964.1026000976562,0.152587890625,-0.02670287899672985,0.0419616661965847
2024-03-11 10:41:02.944542591,-21.489622116088867,-26.80097770690918,982.906005859375,-0.14495849609375,-0.015258788131177425,0.0572204552590847
2024-03-11 10:41:02.954778923,-27.533578872680664,-26.251527786254883,986.2027587890625,0.1068115159869194,-0.2174377292394638,-0.02670287899672985
2024-03-11 10:41:02.964916044,-27.533578872680664,-26.251527786254883,986.2027587890625,0.1068115159869194,-0.2174377292394638,-0.02670287899672985
2024-03-11 10:41:02.975131530,-24.786325454711914,-19.536020278930664,987.72900390625,0.06866455078125,-0.019073486328125,-0.072479248046875
2024-03-11 10:41:02.985363556,-24.786325454711914,-19.536020278930664,987.72900390625,0.06866455078125,-0.019073486328125,-0.072479248046875
2024-03-11 10:41:02.995494563,-22.405372619628906,-23.260074615478516,975.7021484375,-0.015258788131177425,-0.007629394065588713,0.0572204552590847
2024-03-11 10:41:03.005722776,-22.405372619628906,-23.260074615478516,975.7021484375,-0.015258788131177425,-0.007629394065588713,0.0572204552590847
2024-03-11 10:41:03.015936171,-7.814408302307129,-24.175825119018555,986.2637939453125,0.015258788131177425,-0.1182556077837944,0.2479553073644638
2024-03-11 10:41:03.026157051,-7.814408302307129,-24.175825119018555,986.2637939453125,0.015258788131177425,-0.1182556077837944,0.2479553073644638
2024-03-11 10:41:03.036349931,-15.689866065979004,-17.88766860961914,982.4176025390625,-0.0572204552590847,0.0762939453125,0.034332275390625
2024-03-11 10:41:03.046621100,-15.689866065979004,-17.88766860961914,982.4176025390625,-0.0572204552590847,0.0762939453125,0.034332275390625
2024-03-11 10:41:03.056821080,-9.645910263061523,-23.0158748626709,981.4408569335938,0.0534057579934597,0.156402587890625,0.011444090865552425
2024-03-11 10:41:03.067113781,-7.264957427978516,-26.4957275390625,975.9463500976562,-0.2365112155675888,-0.0572204552590847,-0.011444090865552425
2024-03-11 10:41:03.077374541,-7.264957427978516,-26.4957275390625,975.9463500976562,-0.2365112155675888,-0.0572204552590847,-0.011444090865552425
2024-03-11 10:41:03.087669111,-17.58241844177246,-27.4725284576416,984.0659790039062,-0.14495849609375,0.12969970703125,0.1792907565832138
2024-03-11 10:41:03.097847293,-17.58241844177246,-27.4725284576416,984.0659790039062,-0.14495849609375,0.12969970703125,0.1792907565832138
2024-03-11 10:41:03.108045738,-23.870574951171875,-26.007328033447266,993.5897827148438,0.0610351525247097,0.0610351525247097,0.1182556077837944
2024-03-11 10:41:03.118218506,-15.445666313171387,-27.4725284576416,980.830322265625,0.156402587890625,-0.03814697265625,0.02670287899672985
2024-03-11 10:41:03.128416605,-15.445666313171387,-27.4725284576416,980.830322265625,0.156402587890625,-0.03814697265625,0.02670287899672985
2024-03-11 10:41:03.138680987,-20.390722274780273,-32.96703338623047,984.737548828125,0.011444090865552425,0.015258788131177425,0.1029968187212944
2024-03-11 10:41:03.148999505,-20.390722274780273,-32.96703338623047,984.737548828125,0.011444090865552425,0.015258788131177425,0.1029968187212944
2024-03-11 10:41:03.159182231,-15.445666313171387,-34.004886627197266,988.0342407226562,0.0877380296587944,0.1792907565832138,-0.0839233323931694
2024-03-11 10:41:03.169488511,-16.239316940307617,-19.291820526123047,977.5946655273438,0.2403259128332138,0.03051757626235485,0.0915527269244194
2024-03-11 10:41:03.179738306,-16.239316940307617,-19.291820526123047,977.5946655273438,0.2403259128332138,0.03051757626235485,0.0915527269244194
2024-03-11 10:41:03.189920846,-21.489622116088867,-20.63492202758789,978.0830688476562,0.072479248046875,-0.0457763634622097,0.0038146970327943563
2024-03-11 10:41:03.200149422,-21.489622116088867,-20.63492202758789,978.0830688476562,0.072479248046875,-0.0457763634622097,0.0038146970327943563
2024-03-11 10:41:03.210636283,-13.186814308166504,-25.5189266204834,978.3272705078125,-0.0419616661965847,-0.1029968187212944,0.06866455078125
2024-03-11 10:41:03.221021461,-20.390722274780273,-29.365081787109375,986.9353637695312,0.1792907565832138,-0.1029968187212944,0.02288818173110485
2024-03-11 10:41:03.231257812,-20.390722274780273,-29.365081787109375,986.9353637695312,0.1792907565832138,-0.1029968187212944,0.02288818173110485
2024-03-11 10:41:03.241430653,-12.63736343383789,-24.542125701904297,981.68505859375,0.1182556077837944,-0.06866455078125,0.0572204552590847
2024-03-11 10:41:03.251744601,-4.395604610443115,-23.0158748626709,980.4029541015625,0.2212524265050888,-0.011444090865552425,0.141143798828125
2024-03-11 10:41:03.261846458,-4.395604610443115,-23.0158748626709,980.4029541015625,0.2212524265050888,-0.011444090865552425,0.141143798828125
2024-03-11 10:41:03.272154307,-3.479853630065918,-26.373628616333008,976.1905517578125,0.1983642429113388,-0.0572204552590847,-0.015258788131177425
2024-03-11 10:41:03.282243726,-3.479853630065918,-26.373628616333008,976.1905517578125,0.1983642429113388,-0.0572204552590847,-0.015258788131177425
2024-03-11 10:41:03.292545049,-22.954824447631836,-25.457876205444336,980.1587524414062,-0.0495910607278347,0.0953674241900444,-0.1068115159869194
2024-03-11 10:41:03.302750326,-27.289379119873047,-30.341882705688477,979.2430419921875,0.072479248046875,0.011444090865552425,-0.1716613620519638
2024-03-11 10:41:03.312987232,-27.289379119873047,-30.341882705688477,979.2430419921875,0.072479248046875,0.011444090865552425,-0.1716613620519638
2024-03-11 10:41:03.323199777,-21.367523193359375,-30.952383041381836,985.5311889648438,-0.06866455078125,-0.034332275390625,0.02288818173110485
2024-03-11 10:41:03.333380111,-21.367523193359375,-30.952383041381836,985.5311889648438,-0.06866455078125,-0.034332275390625,0.02288818173110485
2024-03-11 10:41:03.343649104,-21.367523193359375,-30.952383041381836,985.5311889648438,-0.06866455078125,-0.034332275390625,0.02288818173110485
2024-03-11 10:41:03.353686236,-17.27716827392578,-25.763126373291016,978.2662353515625,0.0457763634622097,0.06866455078125,0.0419616661965847
2024-03-11 10:41:03.363955852,-25.335777282714844,-19.4749698638916,983.7607421875,0.015258788131177425,0.06866455078125,0.1602172702550888
2024-03-11 10:41:03.374194469,-25.335777282714844,-19.4749698638916,983.7607421875,0.015258788131177425,0.06866455078125,0.1602172702550888
2024-03-11 10:41:03.384594187,-11.782662391662598,-25.57997703552246,976.678955078125,-0.156402587890625,-0.06866455078125,0.0038146970327943563
2024-03-11 10:41:03.402518710,-7.814408302307129,-29.365081787109375,981.80712890625,-0.0991821214556694,0.0915527269244194,0.072479248046875
2024-03-11 10:41:03.412621849,-7.814408302307129,-29.365081787109375,981.80712890625,-0.0991821214556694,0.0915527269244194,0.072479248046875
2024-03-11 10:41:03.423009604,-13.369963645935059,-21.001222610473633,980.2808837890625,-0.1220703050494194,-0.0457763634622097,-0.072479248046875
2024-03-11 10:41:03.433291318,-13.369963645935059,-21.001222610473633,980.2808837890625,-0.1220703050494194,-0.0457763634622097,-0.072479248046875
2024-03-11 10:41:03.443384589,-8.60805892944336,-26.434677124023438,984.9817504882812,-0.011444090865552425,0.019073486328125,0.0610351525247097
2024-03-11 10:41:03.453712705,-8.60805892944336,-26.434677124023438,984.9817504882812,-0.011444090865552425,0.019073486328125,0.0610351525247097
2024-03-11 10:41:03.463750955,-13.064713478088379,-33.333335876464844,982.0513305664062,-0.011444090865552425,0.0877380296587944,-0.0457763634622097
2024-03-11 10:41:03.473939179,-18.864469528198242,-26.007328033447266,985.71435546875,-0.12969970703125,-0.0457763634622097,0.0038146970327943563
2024-03-11 10:41:03.484209203,-18.864469528198242,-26.007328033447266,985.71435546875,-0.12969970703125,-0.0457763634622097,0.0038146970327943563
2024-03-11 10:41:03.494510072,-10.866911888122559,-24.420024871826172,978.5714721679688,0.02288818173110485,0.1068115159869194,0.0572204552590847
2024-03-11 10:41:03.504896110,-10.866911888122559,-24.420024871826172,978.5714721679688,0.02288818173110485,0.1068115159869194,0.0572204552590847
2024-03-11 10:41:03.515035189,-15.567766189575195,-27.65567970275879,981.3187255859375,-0.3433227241039276,0.0877380296587944,0.034332275390625
2024-03-11 10:41:03.525238936,-15.567766189575195,-27.65567970275879,981.3187255859375,-0.3433227241039276,0.0877380296587944,0.034332275390625
2024-03-11 10:41:03.535459127,-13.369963645935059,-29.426130294799805,977.8388671875,0.148773193359375,0.0801086351275444,0.1106262132525444
2024-03-11 10:41:03.545566793,-13.369963645935059,-29.426130294799805,977.8388671875,0.148773193359375,0.0801086351275444,0.1106262132525444
2024-03-11 10:41:03.555808757,-22.344324111938477,-28.998781204223633,983.4555053710938,0.02288818173110485,-0.0877380296587944,0.141143798828125
2024-03-11 10:41:03.566006768,-20.26862144470215,-22.954824447631836,980.891357421875,-0.25177001953125,-0.2250671237707138,-0.152587890625
2024-03-11 10:41:03.576249107,-20.26862144470215,-22.954824447631836,980.891357421875,-0.25177001953125,-0.2250671237707138,-0.152587890625
2024-03-11 10:41:03.586518050,-13.064713478088379,-34.06593704223633,982.844970703125,0.1945495456457138,-0.1945495456457138,0.03814697265625
2024-03-11 10:41:03.596698214,-13.064713478088379,-34.06593704223633,982.844970703125,0.1945495456457138,-0.1945495456457138,0.03814697265625
2024-03-11 10:41:03.606882612,-16.056167602539062,-30.15873146057129,983.1502075195312,0.019073486328125,0.1831054538488388,0.02670287899672985
2024-03-11 10:41:03.617210389,-16.056167602539062,-30.15873146057129,983.1502075195312,0.019073486328125,0.1831054538488388,0.02670287899672985
2024-03-11 10:41:03.627374569,-9.340660095214844,-32.112335205078125,982.4786987304688,0.03051757626235485,0.0038146970327943563,0.1029968187212944
