timestamp,acc_x,acc_y,acc_z,gyr_x,gyr_y,gyr_z
1711460713.322658,-17.155067443847656,-23.809524536132812,975.2747802734375,0.1373291015625,-0.0572204552590847,0.072479248046875
1711460713.333954,-20.390722274780273,-32.35653305053711,982.1734619140625,0.064849853515625,-0.1144409105181694,-0.12969970703125
1711460713.5904202,-12.63736343383789,-26.923078536987305,980.9524536132812,0.0038146970327943563,0.0038146970327943563,0.152587890625
1711460713.5909915,-12.63736343383789,-26.923078536987305,980.9524536132812,0.0038146970327943563,0.0038146970327943563,0.152587890625
1711460713.5912213,-14.04151439666748,-29.059829711914062,981.5629272460938,0.0,0.1029968187212944,0.0991821214556694
1711460713.5914495,-13.797314643859863,-25.152626037597656,982.3565673828125,0.1373291015625,-0.2059936374425888,0.019073486328125
1711460713.5916312,-13.797314643859863,-25.152626037597656,982.3565673828125,0.1373291015625,-0.2059936374425888,0.019073486328125
1711460713.599641,-13.308914184570312,-24.420024871826172,985.6532592773438,-0.1220703050494194,-0.1907348483800888,0.0953674241900444
1711460713.5999026,-11.294261932373047,-30.280832290649414,979.853515625,0.1678466647863388,0.011444090865552425,-0.1602172702550888
1711460713.600251,-11.294261932373047,-30.280832290649414,979.853515625,0.1678466647863388,0.011444090865552425,-0.1602172702550888
1711460713.6004837,-11.538461685180664,-27.35042953491211,985.9585571289062,0.0495910607278347,-0.0457763634622097,0.2479553073644638
1711460713.6006513,-25.030527114868164,-23.076923370361328,985.2869873046875,-0.1029968187212944,0.03051757626235485,0.1945495456457138
1711460713.6008558,-25.030527114868164,-23.076923370361328,985.2869873046875,-0.1029968187212944,0.03051757626235485,0.1945495456457138
1711460713.6010015,-18.131868362426758,-28.26618003845215,978.5714721679688,0.0038146970327943563,0.011444090865552425,0.1029968187212944
1711460713.6011746,-18.131868362426758,-28.26618003845215,978.5714721679688,0.0038146970327943563,0.011444090865552425,0.1029968187212944
1711460713.601349,-13.308914184570312,-28.93773078918457,978.5104370117188,-0.1182556077837944,0.0419616661965847,-0.0877380296587944
1711460713.6014957,-13.308914184570312,-28.93773078918457,978.5104370117188,-0.1182556077837944,0.0419616661965847,-0.0877380296587944
1711460713.6040547,-14.590965270996094,-29.609281539916992,988.0342407226562,0.0877380296587944,-0.02288818173110485,0.03051757626235485
1711460713.61436,-18.131868362426758,-22.22222328186035,981.0134887695312,-0.0762939453125,-0.011444090865552425,-0.0534057579934597
1711460713.6249352,-18.131868362426758,-22.22222328186035,981.0134887695312,-0.0762939453125,-0.011444090865552425,-0.0534057579934597
1711460713.6350179,-15.9951171875,-21.123321533203125,986.3858642578125,0.0991821214556694,0.0419616661965847,0.1678466647863388
1711460713.6452568,-14.285715103149414,-26.4957275390625,984.2491455078125,-0.02670287899672985,0.12969970703125,-0.0038146970327943563
1711460713.6556683,-14.285715103149414,-26.4957275390625,984.2491455078125,-0.02670287899672985,0.12969970703125,-0.0038146970327943563
1711460713.6655712,-12.7594633102417,-24.420024871826172,982.2344970703125,-0.1106262132525444,0.0495910607278347,0.072479248046875
1711460713.6756783,-12.7594633102417,-24.420024871826172,982.2344970703125,-0.1106262132525444,0.0495910607278347,0.072479248046875
1711460713.6861346,-19.10866928100586,-29.54823112487793,984.3101806640625,0.0457763634622097,0.0953674241900444,0.03051757626235485
1711460713.696375,-19.10866928100586,-29.54823112487793,984.3101806640625,0.0457763634622097,0.0953674241900444,0.03051757626235485
1711460713.7068594,-16.727718353271484,-25.091575622558594,980.0977172851562,0.06866455078125,0.034332275390625,0.133514404296875
1711460713.7171686,-14.774115562438965,-24.29792594909668,983.6386108398438,-0.293731689453125,0.0762939453125,0.1106262132525444
1711460713.7276037,-14.774115562438965,-24.29792594909668,983.6386108398438,-0.293731689453125,0.0762939453125,0.1106262132525444
1711460713.7379684,-12.087912559509277,-27.96092987060547,983.6386108398438,-0.1754760593175888,0.011444090865552425,-0.1983642429113388
1711460713.748295,-12.087912559509277,-27.96092987060547,983.6386108398438,-0.1754760593175888,0.011444090865552425,-0.1983642429113388
1711460713.7587357,-13.492064476013184,-26.739927291870117,979.1820068359375,0.06866455078125,-0.133514404296875,0.034332275390625
1711460713.7689784,-13.492064476013184,-26.739927291870117,979.1820068359375,0.06866455078125,-0.133514404296875,0.034332275390625
1711460713.7824316,-13.186814308166504,-27.96092987060547,980.0366821289062,0.015258788131177425,0.14495849609375,-0.06866455078125
1711460713.7946184,-13.186814308166504,-27.96092987060547,980.0366821289062,0.015258788131177425,0.14495849609375,-0.06866455078125
1711460713.8047626,-18.74237060546875,-26.739927291870117,992.735107421875,0.064849853515625,-0.152587890625,0.1220703050494194
1711460713.8148415,-18.74237060546875,-26.739927291870117,992.735107421875,0.064849853515625,-0.152587890625,0.1220703050494194
1711460713.8252344,-22.46642303466797,-33.9438362121582,976.6178588867188,0.02670287899672985,0.1068115159869194,-0.064849853515625
1711460713.836803,-22.46642303466797,-33.9438362121582,976.6178588867188,0.02670287899672985,0.1068115159869194,-0.064849853515625
1711460713.846995,-16.9719181060791,-29.54823112487793,979.1820068359375,0.03814697265625,0.0495910607278347,-0.0419616661965847
1711460713.8573408,-16.9719181060791,-29.54823112487793,979.1820068359375,0.03814697265625,0.0495910607278347,-0.0419616661965847
1711460713.8676426,-16.849817276000977,-23.931625366210938,983.69970703125,0.2403259128332138,0.0762939453125,-0.0534057579934597
1711460713.8776484,-16.849817276000977,-23.931625366210938,983.69970703125,0.2403259128332138,0.0762939453125,-0.0534057579934597
1711460713.8879528,-8.79120922088623,-17.58241844177246,978.4494018554688,0.0457763634622097,0.064849853515625,0.0762939453125
1711460713.8980255,-18.19291877746582,-21.916973114013672,978.2052001953125,0.1869201511144638,-0.0839233323931694,-0.019073486328125
1711460713.9084694,-18.19291877746582,-21.916973114013672,978.2052001953125,0.1869201511144638,-0.0839233323931694,-0.019073486328125
1711460713.9189239,-13.431014060974121,-22.77167320251465,983.7607421875,0.1068115159869194,-0.011444090865552425,0.0610351525247097
1711460713.9287784,-13.431014060974121,-22.77167320251465,983.7607421875,0.1068115159869194,-0.011444090865552425,0.0610351525247097
1711460713.9392028,-12.45421314239502,-28.144079208374023,980.5861206054688,0.0915527269244194,-0.064849853515625,-0.0953674241900444
1711460713.9494925,-12.332113265991211,-24.358976364135742,980.2808837890625,0.141143798828125,0.156402587890625,-0.06866455078125
1711460713.9597466,-12.332113265991211,-24.358976364135742,980.2808837890625,0.141143798828125,0.156402587890625,-0.06866455078125
1711460713.970243,-12.332113265991211,-27.228328704833984,981.9292602539062,0.125885009765625,-0.1373291015625,0.2250671237707138
1711460713.980597,-12.332113265991211,-27.228328704833984,981.9292602539062,0.125885009765625,-0.1373291015625,0.2250671237707138
1711460713.99085,-17.27716827392578,-25.641027450561523,973.0769653320312,0.0419616661965847,0.0839233323931694,0.2441406100988388
1711460714.0007508,-13.919414520263672,-28.815629959106445,981.0745239257812,-0.0038146970327943563,-0.03051757626235485,0.1182556077837944
1711460714.0111501,-13.919414520263672,-28.815629959106445,981.0745239257812,-0.0038146970327943563,-0.03051757626235485,0.1182556077837944
1711460714.021126,-12.210012435913086,-29.365081787109375,981.6239624023438,0.2593994140625,-0.26702880859375,0.156402587890625
1711460714.033736,-12.210012435913086,-29.365081787109375,981.6239624023438,0.2593994140625,-0.26702880859375,0.156402587890625
1711460714.0440528,-9.40170955657959,-29.24298095703125,977.3504638671875,0.03051757626235485,0.034332275390625,-0.0419616661965847
1711460714.054301,-9.40170955657959,-29.24298095703125,977.3504638671875,0.03051757626235485,0.034332275390625,-0.0419616661965847
1711460714.0648534,-23.74847412109375,-23.68742561340332,979.4262084960938,0.1220703050494194,0.0419616661965847,-0.0457763634622097
1711460714.0748723,-19.78022003173828,-26.984128952026367,984.9817504882812,0.0419616661965847,-0.011444090865552425,-0.0038146970327943563
1711460714.0851102,-19.78022003173828,-26.984128952026367,984.9817504882812,0.0419616661965847,-0.011444090865552425,-0.0038146970327943563
1711460714.095398,-9.279609680175781,-34.371185302734375,979.2430419921875,0.02288818173110485,-0.011444090865552425,-0.1029968187212944
1711460714.1057386,-9.279609680175781,-34.371185302734375,979.2430419921875,0.02288818173110485,-0.011444090865552425,-0.1029968187212944
1711460714.1157215,-12.332113265991211,-32.17338562011719,977.5946655273438,0.1678466647863388,-0.1220703050494194,0.0915527269244194
1711460714.1277134,-12.332113265991211,-32.17338562011719,977.5946655273438,0.1678466647863388,-0.1220703050494194,0.0915527269244194
1711460714.137999,-13.125763893127441,-24.236875534057617,983.1502075195312,-0.1220703050494194,0.0839233323931694,-0.015258788131177425
1711460714.1482558,-13.125763893127441,-24.236875534057617,983.1502075195312,-0.1220703050494194,0.0839233323931694,-0.015258788131177425
1711460714.158436,-19.78022003173828,-23.99267578125,985.1038208007812,-0.019073486328125,-0.0038146970327943563,-0.06866455078125
1711460714.1686745,-19.78022003173828,-23.99267578125,985.1038208007812,-0.019073486328125,-0.0038146970327943563,-0.06866455078125
1711460714.1798403,-19.169719696044922,-31.929183959960938,981.1966552734375,0.0953674241900444,0.1220703050494194,0.0915527269244194
1711460714.1899538,-19.169719696044922,-31.929183959960938,981.1966552734375,0.0953674241900444,0.1220703050494194,0.0915527269244194
1711460714.2001748,-18.437118530273438,-29.914531707763672,984.4323120117188,-0.0839233323931694,-0.0457763634622097,0.0038146970327943563
1711460714.2103488,-16.91086769104004,-21.611722946166992,979.3040771484375,-0.011444090865552425,0.0495910607278347,0.1029968187212944
1711460714.2205925,-16.91086769104004,-21.611722946166992,979.3040771484375,-0.011444090865552425,0.0495910607278347,0.1029968187212944
1711460714.2309024,-14.652015686035156,-29.365081787109375,981.74609375,0.2098083347082138,0.03051757626235485,-0.0534057579934597
1711460714.2413468,-14.652015686035156,-29.365081787109375,981.74609375,0.2098083347082138,0.03051757626235485,-0.0534057579934597
1711460714.2516625,-8.30280876159668,-26.007328033447266,985.9585571289062,0.308990478515625,-0.0419616661965847,0.0915527269244194
1711460714.2622073,-8.30280876159668,-26.007328033447266,985.9585571289062,0.308990478515625,-0.0419616661965847,0.0915527269244194
1711460714.2723768,-18.19291877746582,-23.870574951171875,983.3944091796875,0.072479248046875,-0.0572204552590847,0.1106262132525444
1711460714.285579,-13.431014060974121,-22.649574279785156,983.4555053710938,-0.141143798828125,-0.1144409105181694,0.141143798828125
1711460714.2957084,-13.431014060974121,-22.649574279785156,983.4555053710938,-0.141143798828125,-0.1144409105181694,0.141143798828125
1711460714.3057754,-8.60805892944336,-25.091575622558594,981.5629272460938,0.0801086351275444,-0.015258788131177425,0.1220703050494194
1711460714.3159575,-8.60805892944336,-25.091575622558594,981.5629272460938,0.0801086351275444,-0.015258788131177425,0.1220703050494194
1711460714.3263326,-21.428571701049805,-20.818071365356445,976.4957885742188,0.064849853515625,0.0419616661965847,-0.0610351525247097
1711460714.3364775,-14.896215438842773,-26.007328033447266,979.2430419921875,-0.141143798828125,0.1220703050494194,0.0915527269244194
1711460714.3468206,-14.896215438842773,-26.007328033447266,979.2430419921875,-0.141143798828125,0.1220703050494194,0.0915527269244194
1711460714.357144,-14.957265853881836,-31.379732131958008,981.1966552734375,-0.0534057579934597,0.2250671237707138,-0.019073486328125
1711460714.3674603,-14.957265853881836,-31.379732131958008,981.1966552734375,-0.0534057579934597,0.2250671237707138,-0.019073486328125
1711460714.3776228,-12.881563186645508,-24.786325454711914,992.2467041015625,0.064849853515625,0.152587890625,0.2593994140625
1711460714.3877544,-6.043956279754639,-27.167278289794922,985.5311889648438,0.0457763634622097,0.133514404296875,-0.064849853515625
1711460714.39786,-6.043956279754639,-27.167278289794922,985.5311889648438,0.0457763634622097,0.133514404296875,-0.064849853515625
1711460714.4081776,-11.965812683105469,-27.167278289794922,986.3248291015625,-0.015258788131177425,-0.1068115159869194,-0.072479248046875
1711460714.4182527,-11.965812683105469,-27.167278289794922,986.3248291015625,-0.015258788131177425,-0.1068115159869194,-0.072479248046875
1711460714.428433,-10.256410598754883,-22.344324111938477,982.1734619140625,-0.03814697265625,0.06866455078125,-0.072479248046875
1711460714.4386063,-12.820513725280762,-27.04517936706543,986.2027587890625,-0.1144409105181694,0.03814697265625,0.2212524265050888
1711460714.4487844,-12.820513725280762,-27.04517936706543,986.2027587890625,-0.1144409105181694,0.03814697265625,0.2212524265050888
1711460714.4590454,-15.140416145324707,-25.5189266204834,976.3736572265625,0.0534057579934597,0.14495849609375,0.0991821214556694
1711460714.4693296,-15.140416145324707,-25.5189266204834,976.3736572265625,0.0534057579934597,0.14495849609375,0.0991821214556694
1711460714.4793634,-19.04762077331543,-26.923078536987305,979.91455078125,0.015258788131177425,-0.0953674241900444,-0.1029968187212944
1711460714.4895074,-19.04762077331543,-26.923078536987305,979.91455078125,0.015258788131177425,-0.0953674241900444,-0.1029968187212944
1711460714.4996915,-10.866911888122559,-22.83272361755371,979.91455078125,-0.0801086351275444,0.06866455078125,0.133514404296875
1711460714.50998,-10.073260307312012,-28.63248062133789,979.9756469726562,-0.02288818173110485,0.1220703050494194,0.0915527269244194
1711460714.5205033,-10.073260307312012,-28.63248062133789,979.9756469726562,-0.02288818173110485,0.1220703050494194,0.0915527269244194
1711460714.5306034,-15.873016357421875,-29.54823112487793,980.5861206054688,0.1182556077837944,0.14495849609375,0.0762939453125
1711460714.5409083,-15.873016357421875,-29.54823112487793,980.5861206054688,0.1182556077837944,0.14495849609375,0.0762939453125
1711460714.5511672,-8.058608055114746,-21.794872283935547,979.0598754882812,0.0,0.0495910607278347,0.1106262132525444
1711460714.5612059,-8.058608055114746,-21.794872283935547,979.0598754882812,0.0,0.0495910607278347,0.1106262132525444
1711460714.5715277,-8.363859176635742,-30.097681045532227,984.859619140625,0.2365112155675888,0.064849853515625,-0.015258788131177425
1711460714.5819046,-8.363859176635742,-30.097681045532227,984.859619140625,0.2365112155675888,0.064849853515625,-0.015258788131177425
1711460714.5920596,-16.422468185424805,-26.923078536987305,980.4640502929688,-0.0762939453125,-0.1144409105181694,0.1029968187212944
1711460714.6035428,-11.782662391662598,-30.036630630493164,982.844970703125,0.0762939453125,0.1068115159869194,0.0534057579934597
1711460714.6134112,-11.782662391662598,-30.036630630493164,982.844970703125,0.0762939453125,0.1068115159869194,0.0534057579934597
1711460714.6227999,-14.529914855957031,-22.22222328186035,986.2637939453125,0.1678466647863388,0.0,0.0038146970327943563
1711460714.6332364,-14.529914855957031,-22.22222328186035,986.2637939453125,0.1678466647863388,0.0,0.0038146970327943563
1711460714.6434977,-12.94261360168457,-21.489622116088867,979.2430419921875,0.0038146970327943563,-0.1144409105181694,0.0495910607278347
1711460714.653545,-12.94261360168457,-21.489622116088867,979.2430419921875,0.0038146970327943563,-0.1144409105181694,0.0495910607278347
1711460714.6637065,-17.27716827392578,-27.289379119873047,976.0073852539062,0.0495910607278347,0.1869201511144638,-0.0534057579934597
1711460714.673716,-17.27716827392578,-27.289379119873047,976.0073852539062,0.0495910607278347,0.1869201511144638,-0.0534057579934597
1711460714.6840532,-16.361417770385742,-29.670331954956055,976.2515869140625,-0.152587890625,0.12969970703125,-0.125885009765625
1711460714.6941235,-16.361417770385742,-29.670331954956055,976.2515869140625,-0.152587890625,0.12969970703125,-0.125885009765625
1711460714.704347,-16.361417770385742,-25.396825790405273,983.6386108398438,0.072479248046875,-0.2212524265050888,0.0991821214556694
1711460714.714488,-14.224664688110352,-31.074481964111328,981.8681640625,0.02670287899672985,-0.0572204552590847,-0.02288818173110485
1711460714.7251084,-14.224664688110352,-31.074481964111328,981.8681640625,0.02670287899672985,-0.0572204552590847,-0.02288818173110485
1711460714.735015,-13.125763893127441,-20.63492202758789,981.3797607421875,0.2403259128332138,0.0572204552590847,-0.0991821214556694
1711460714.7450821,-13.125763893127441,-20.63492202758789,981.3797607421875,0.2403259128332138,0.0572204552590847,-0.0991821214556694
1711460714.7551987,-16.056167602539062,-23.931625366210938,987.9732055664062,0.0,-0.152587890625,0.2059936374425888
1711460714.765953,-14.04151439666748,-32.5396842956543,984.676513671875,-0.12969970703125,-0.2059936374425888,0.0572204552590847
1711460714.776021,-14.04151439666748,-32.5396842956543,984.676513671875,-0.12969970703125,-0.2059936374425888,0.0572204552590847
1711460714.7871935,-8.730158805847168,-24.053726196289062,978.2662353515625,0.007629394065588713,-0.1144409105181694,0.1831054538488388
1711460714.7966435,-12.698412895202637,-27.289379119873047,988.1563110351562,0.0991821214556694,-0.034332275390625,0.0534057579934597
1711460714.8066912,-12.698412895202637,-27.289379119873047,988.1563110351562,0.0991821214556694,-0.034332275390625,0.0534057579934597
1711460714.8169107,-13.55311393737793,-33.333335876464844,984.737548828125,0.0495910607278347,0.1678466647863388,0.0801086351275444
1711460714.8274963,-13.55311393737793,-33.333335876464844,984.737548828125,0.0495910607278347,0.1678466647863388,0.0801086351275444
1711460714.8378282,-15.079365730285645,-25.21367645263672,984.1881103515625,0.02670287899672985,0.1754760593175888,-0.03814697265625
1711460714.847909,-19.4749698638916,-21.611722946166992,982.5397338867188,0.1602172702550888,-0.0953674241900444,-0.152587890625
1711460714.8579261,-19.4749698638916,-21.611722946166992,982.5397338867188,0.1602172702550888,-0.0953674241900444,-0.152587890625
1711460714.868189,-21.367523193359375,-28.38827896118164,975.5800170898438,0.2365112155675888,-0.1106262132525444,-0.064849853515625
1711460714.8782198,-11.477412223815918,-28.876680374145508,975.7021484375,-0.011444090865552425,-0.2059936374425888,0.0839233323931694
1711460714.8886359,-11.477412223815918,-28.876680374145508,975.7021484375,-0.011444090865552425,-0.2059936374425888,0.0839233323931694
1711460714.898577,-15.934066772460938,-27.289379119873047,978.876708984375,-0.0038146970327943563,-0.03051757626235485,0.0991821214556694
1711460714.9087818,-15.934066772460938,-27.289379119873047,978.876708984375,-0.0038146970327943563,-0.03051757626235485,0.0991821214556694
1711460714.9189224,-11.965812683105469,-31.074481964111328,981.1966552734375,-0.0534057579934597,0.0877380296587944,-0.0534057579934597
1711460714.9291496,-18.070819854736328,-23.199024200439453,976.1905517578125,-0.12969970703125,-0.0801086351275444,0.156402587890625
1711460714.9393084,-18.070819854736328,-23.199024200439453,976.1905517578125,-0.12969970703125,-0.0801086351275444,0.156402587890625
1711460714.9500642,-21.062273025512695,-23.565324783325195,983.4555053710938,0.152587890625,0.0877380296587944,0.0610351525247097
1711460714.9600782,-21.062273025512695,-23.565324783325195,983.4555053710938,0.152587890625,0.0877380296587944,0.0610351525247097
1711460714.9705803,-12.820513725280762,-30.647132873535156,983.1502075195312,-0.0495910607278347,-0.14495849609375,-0.034332275390625
1711460714.9807446,-22.52747344970703,-20.390722274780273,979.67041015625,0.06866455078125,0.007629394065588713,0.0839233323931694
1711460714.9908538,-22.52747344970703,-20.390722274780273,979.67041015625,0.06866455078125,0.007629394065588713,0.0839233323931694
1711460715.0011835,-10.378510475158691,-22.344324111938477,982.2344970703125,0.1831054538488388,0.1182556077837944,-0.0610351525247097
1711460715.0117772,-19.65812110900879,-27.71672821044922,978.754638671875,0.0534057579934597,-0.0953674241900444,-0.03051757626235485
1711460715.0217605,-19.65812110900879,-27.71672821044922,978.754638671875,0.0534057579934597,-0.0953674241900444,-0.03051757626235485
1711460715.0318515,-14.224664688110352,-27.71672821044922,979.91455078125,0.0953674241900444,0.152587890625,0.141143798828125
1711460715.0420864,-14.224664688110352,-27.71672821044922,979.91455078125,0.0953674241900444,0.152587890625,0.141143798828125
1711460715.0527964,-17.27716827392578,-27.899879455566406,980.5861206054688,-0.0495910607278347,0.0877380296587944,0.03814697265625
1711460715.062811,-16.422468185424805,-25.5189266204834,977.5336303710938,-0.0457763634622097,0.019073486328125,-0.0457763634622097
1711460715.073109,-16.422468185424805,-25.5189266204834,977.5336303710938,-0.0457763634622097,0.019073486328125,-0.0457763634622097
1711460715.0836637,-12.698412895202637,-29.975582122802734,981.1355590820312,0.0038146970327943563,0.015258788131177425,0.1106262132525444
1711460715.0936065,-12.698412895202637,-29.975582122802734,981.1355590820312,0.0038146970327943563,0.015258788131177425,0.1106262132525444
1711460715.1042976,-14.529914855957031,-24.236875534057617,978.693603515625,-0.02670287899672985,-0.011444090865552425,0.12969970703125
1711460715.114224,-14.529914855957031,-24.236875534057617,978.693603515625,-0.02670287899672985,-0.011444090865552425,0.12969970703125
1711460715.124014,-18.559219360351562,-30.46398162841797,975.88525390625,-0.0915527269244194,0.0495910607278347,0.2365112155675888
1711460715.1341636,-18.559219360351562,-30.46398162841797,975.88525390625,-0.0915527269244194,0.0495910607278347,0.2365112155675888
1711460715.144897,-7.99755859375,-21.85592269897461,982.722900390625,-0.019073486328125,-0.152587890625,-0.0915527269244194
1711460715.1546814,-13.614164352416992,-29.181930541992188,977.6557006835938,0.0953674241900444,0.1907348483800888,0.0991821214556694
1711460715.1650825,-13.614164352416992,-29.181930541992188,977.6557006835938,0.0953674241900444,0.1907348483800888,0.0991821214556694
1711460715.1752102,-15.323566436767578,-27.533578872680664,983.8828125,-0.0457763634622097,-0.007629394065588713,-0.0457763634622097
1711460715.185378,-18.437118530273438,-28.876680374145508,982.6618041992188,0.0534057579934597,-0.2021789401769638,0.1831054538488388
1711460715.1956778,-18.437118530273438,-28.876680374145508,982.6618041992188,0.0534057579934597,-0.2021789401769638,0.1831054538488388
1711460715.2060058,-18.864469528198242,-29.365081787109375,981.0134887695312,-0.064849853515625,0.06866455078125,-0.0953674241900444
1711460715.2161086,-18.864469528198242,-29.365081787109375,981.0134887695312,-0.064849853515625,0.06866455078125,-0.0953674241900444
1711460715.226538,-14.224664688110352,-23.931625366210938,982.6007690429688,0.0953674241900444,-0.152587890625,-0.0534057579934597
1711460715.2365751,-14.224664688110352,-23.931625366210938,982.6007690429688,0.0953674241900444,-0.152587890625,-0.0534057579934597
1711460715.2466764,-17.094017028808594,-28.998781204223633,983.8828125,0.0457763634622097,-0.019073486328125,0.0610351525247097
1711460715.2573502,-14.835165977478027,-18.74237060546875,978.2052001953125,-0.0801086351275444,-0.0457763634622097,-0.0038146970327943563
1711460715.2679207,-14.835165977478027,-18.74237060546875,978.2052001953125,-0.0801086351275444,-0.0457763634622097,-0.0038146970327943563
1711460715.2777803,-9.768010139465332,-25.946277618408203,981.80712890625,0.019073486328125,0.1907348483800888,0.0038146970327943563
1711460715.2876706,-9.768010139465332,-25.946277618408203,981.80712890625,0.019073486328125,0.1907348483800888,0.0038146970327943563
1711460715.2982106,-14.774115562438965,-21.611722946166992,975.9463500976562,0.255584716796875,-0.14495849609375,0.02670287899672985
1711460715.3084688,-13.7362642288208,-23.626375198364258,984.676513671875,0.0495910607278347,-0.019073486328125,0.2403259128332138
1711460715.3185112,-13.7362642288208,-23.626375198364258,984.676513671875,0.0495910607278347,-0.019073486328125,0.2403259128332138
1711460715.3287299,-16.788766860961914,-22.405372619628906,984.798583984375,0.1373291015625,-0.1144409105181694,0.02670287899672985
1711460715.3387148,-16.788766860961914,-22.405372619628906,984.798583984375,0.1373291015625,-0.1144409105181694,0.02670287899672985
1711460715.3489153,-12.45421314239502,-27.41147804260254,977.89990234375,0.0801086351275444,-0.0572204552590847,0.156402587890625
1711460715.3589983,-17.826618194580078,-18.80341911315918,982.2955322265625,-0.019073486328125,0.141143798828125,0.0915527269244194
1711460715.3693688,-17.826618194580078,-18.80341911315918,982.2955322265625,-0.019073486328125,0.141143798828125,0.0915527269244194
1711460715.3795087,-22.893774032592773,-21.733823776245117,986.9353637695312,-0.1220703050494194,-0.12969970703125,0.1068115159869194
1711460715.3898606,-22.893774032592773,-21.733823776245117,986.9353637695312,-0.1220703050494194,-0.12969970703125,0.1068115159869194
1711460715.4008656,-13.125763893127441,-23.260074615478516,979.2430419921875,-0.007629394065588713,0.2479553073644638,0.12969970703125
1711460715.4103632,-14.529914855957031,-27.838829040527344,978.754638671875,-0.072479248046875,0.0038146970327943563,0.2021789401769638
1711460715.4202933,-14.529914855957031,-27.838829040527344,978.754638671875,-0.072479248046875,0.0038146970327943563,0.2021789401769638
1711460715.4301455,-15.689866065979004,-30.402931213378906,981.3797607421875,0.156402587890625,-0.12969970703125,0.1602172702550888
1711460715.4456546,-15.689866065979004,-30.402931213378906,981.3797607421875,0.156402587890625,-0.12969970703125,0.1602172702550888
1711460715.4563296,-10.622711181640625,-26.129426956176758,976.5568237304688,-0.034332275390625,0.148773193359375,-0.015258788131177425
1711460715.4662132,-10.744811058044434,-20.757020950317383,981.8681640625,0.02670287899672985,-0.0877380296587944,0.0
1711460715.4761083,-10.744811058044434,-20.757020950317383,981.8681640625,0.02670287899672985,-0.0877380296587944,0.0
1711460715.487138,-21.55067253112793,-25.88522720336914,980.5250854492188,-0.011444090865552425,0.011444090865552425,-0.1220703050494194
1711460715.496925,-21.55067253112793,-25.88522720336914,980.5250854492188,-0.011444090865552425,0.011444090865552425,-0.1220703050494194
1711460715.5077229,-14.224664688110352,-26.4957275390625,989.8046875,-0.0877380296587944,0.156402587890625,-0.0953674241900444
1711460715.5174901,-14.224664688110352,-26.4957275390625,989.8046875,-0.0877380296587944,0.156402587890625,-0.0953674241900444
1711460715.528526,-6.837607383728027,-22.649574279785156,976.5568237304688,-0.02288818173110485,0.019073486328125,0.02670287899672985
1711460715.537994,-6.837607383728027,-22.649574279785156,976.5568237304688,-0.02288818173110485,0.019073486328125,0.02670287899672985
1711460715.5485911,-10.744811058044434,-30.402931213378906,986.1416625976562,0.03051757626235485,-0.03814697265625,-0.0953674241900444
1711460715.558321,-7.509157657623291,-26.739927291870117,982.6007690429688,0.1945495456457138,0.1831054538488388,0.2250671237707138
1711460715.5685685,-7.509157657623291,-26.739927291870117,982.6007690429688,0.1945495456457138,0.1831054538488388,0.2250671237707138
1711460715.5787632,-20.512821197509766,-33.51648712158203,988.0342407226562,0.03051757626235485,0.0419616661965847,-0.1029968187212944
1711460715.5889359,-20.512821197509766,-33.51648712158203,988.0342407226562,0.03051757626235485,0.0419616661965847,-0.1029968187212944
1711460715.599207,-13.675214767456055,-15.750916481018066,986.752197265625,0.0877380296587944,-0.2021789401769638,0.0
1711460715.6093433,-13.675214767456055,-15.750916481018066,986.752197265625,0.0877380296587944,-0.2021789401769638,0.0
1711460715.6199012,-11.294261932373047,-25.763126373291016,986.1416625976562,0.03814697265625,-0.007629394065588713,-0.0457763634622097
1711460715.6298277,-11.294261932373047,-25.763126373291016,986.1416625976562,0.03814697265625,-0.007629394065588713,-0.0457763634622097
1711460715.6406868,-18.070819854736328,-24.481075286865234,980.5861206054688,0.1106262132525444,-0.0610351525247097,0.011444090865552425
1711460715.6505241,-18.070819854736328,-24.481075286865234,980.5861206054688,0.1106262132525444,-0.0610351525247097,0.011444090865552425
1711460715.661312,-13.308914184570312,-25.27472686767578,979.7314453125,0.0953674241900444,-0.06866455078125,0.0038146970327943563
1711460715.6712742,-13.308914184570312,-25.27472686767578,979.7314453125,0.0953674241900444,-0.06866455078125,0.0038146970327943563
1711460715.6814592,-12.45421314239502,-26.434677124023438,979.5482788085938,0.255584716796875,-0.02288818173110485,0.0991821214556694
1711460715.6957762,-13.24786376953125,-27.04517936706543,988.0952758789062,-0.2212524265050888,0.12969970703125,-0.011444090865552425
1711460715.706058,-13.24786376953125,-27.04517936706543,988.0952758789062,-0.2212524265050888,0.12969970703125,-0.011444090865552425
1711460715.716016,-17.032968521118164,-24.847375869750977,982.4176025390625,0.1678466647863388,0.0495910607278347,-0.015258788131177425
1711460715.7263184,-17.032968521118164,-24.847375869750977,982.4176025390625,0.1678466647863388,0.0495910607278347,-0.015258788131177425
1711460715.7366397,-19.841270446777344,-22.588523864746094,981.1966552734375,0.1792907565832138,-0.06866455078125,0.1678466647863388
1711460715.746824,-19.841270446777344,-22.588523864746094,981.1966552734375,0.1792907565832138,-0.06866455078125,0.1678466647863388
1711460715.7571266,-15.262516021728516,-30.21978187561035,980.830322265625,0.0,-0.015258788131177425,0.0953674241900444
1711460715.7672803,-13.125763893127441,-23.44322395324707,980.4640502929688,0.03051757626235485,-0.14495849609375,-0.1373291015625
1711460715.778427,-13.125763893127441,-23.44322395324707,980.4640502929688,0.03051757626235485,-0.14495849609375,-0.1373291015625
1711460715.787991,-13.125763893127441,-23.44322395324707,980.4640502929688,0.03051757626235485,-0.14495849609375,-0.1373291015625
1711460715.798188,-11.965812683105469,-29.975582122802734,984.676513671875,0.2136230319738388,-0.0839233323931694,0.141143798828125
1711460715.8082316,-16.60561752319336,-29.426130294799805,979.79248046875,-0.015258788131177425,0.0419616661965847,0.0534057579934597
1711460715.8181736,-16.60561752319336,-29.426130294799805,979.79248046875,-0.015258788131177425,0.0419616661965847,0.0534057579934597
1711460715.8286114,-15.934066772460938,-26.984128952026367,978.9378051757812,-0.015258788131177425,-0.011444090865552425,0.148773193359375
1711460715.8387227,-15.934066772460938,-26.984128952026367,978.9378051757812,-0.015258788131177425,-0.011444090865552425,0.148773193359375
1711460715.8489902,-25.27472686767578,-31.623933792114258,975.3358154296875,-0.0457763634622097,-0.0457763634622097,0.14495849609375
1711460715.8589604,-19.10866928100586,-23.74847412109375,981.1966552734375,0.2136230319738388,0.0762939453125,0.0915527269244194
1711460715.8691146,-19.10866928100586,-23.74847412109375,981.1966552734375,0.2136230319738388,0.0762939453125,0.0915527269244194
1711460715.8793445,-16.239316940307617,-25.396825790405273,984.1270141601562,-0.0038146970327943563,-0.14495849609375,0.0610351525247097
1711460715.8897076,-16.239316940307617,-25.396825790405273,984.1270141601562,-0.0038146970327943563,-0.14495849609375,0.0610351525247097
1711460715.8999295,-18.986570358276367,-26.4957275390625,981.1355590820312,0.2593994140625,0.1182556077837944,0.152587890625
1711460715.910223,-18.986570358276367,-26.4957275390625,981.1355590820312,0.2593994140625,0.1182556077837944,0.152587890625
1711460715.9202685,-18.131868362426758,-22.344324111938477,975.5189819335938,0.2403259128332138,-0.015258788131177425,0.0
1711460715.930718,-13.55311393737793,-21.062273025512695,981.3797607421875,-0.03051757626235485,0.0419616661965847,0.0915527269244194
1711460715.9410868,-13.55311393737793,-21.062273025512695,981.3797607421875,-0.03051757626235485,0.0419616661965847,0.0915527269244194
1711460715.9509864,-18.559219360351562,-28.815629959106445,972.4053955078125,-0.03051757626235485,0.1831054538488388,-0.1144409105181694
1711460715.9615126,-18.559219360351562,-28.815629959106445,972.4053955078125,-0.03051757626235485,0.1831054538488388,-0.1144409105181694
1711460715.971486,-14.224664688110352,-23.99267578125,988.0342407226562,-0.072479248046875,-0.152587890625,-0.06866455078125
1711460715.981688,-17.826618194580078,-25.030527114868164,976.801025390625,0.0801086351275444,0.03051757626235485,0.0495910607278347
1711460715.9916172,-17.826618194580078,-25.030527114868164,976.801025390625,0.0801086351275444,0.03051757626235485,0.0495910607278347
1711460716.0019197,-17.338218688964844,-21.123321533203125,987.66796875,0.0534057579934597,0.019073486328125,0.1792907565832138
1711460716.0123553,-19.65812110900879,-27.96092987060547,981.1966552734375,0.0572204552590847,-0.0457763634622097,0.1182556077837944
1711460716.0224538,-19.65812110900879,-27.96092987060547,981.1966552734375,0.0572204552590847,-0.0457763634622097,0.1182556077837944
1711460716.0326333,-18.620269775390625,-22.954824447631836,982.1734619140625,0.1029968187212944,-0.011444090865552425,0.0495910607278347
1711460716.0427268,-18.620269775390625,-22.954824447631836,982.1734619140625,0.1029968187212944,-0.011444090865552425,0.0495910607278347
1711460716.0528576,-13.85836410522461,-25.824176788330078,980.4029541015625,0.0610351525247097,0.0877380296587944,0.011444090865552425
1711460716.0629222,-17.21611785888672,-24.358976364135742,986.2027587890625,-0.0457763634622097,-0.0572204552590847,0.06866455078125
1711460716.0804532,-17.338218688964844,-22.954824447631836,975.76318359375,0.0877380296587944,0.03814697265625,-0.03051757626235485
1711460716.0907025,-17.338218688964844,-22.954824447631836,975.76318359375,0.0877380296587944,0.03814697265625,-0.03051757626235485
1711460716.1009157,-12.45421314239502,-23.44322395324707,976.0684204101562,0.0762939453125,-0.0610351525247097,-0.0953674241900444
1711460716.1113482,-18.253969192504883,-30.83028221130371,986.3248291015625,-0.1754760593175888,0.2593994140625,0.0839233323931694
1711460716.1219394,-18.253969192504883,-30.83028221130371,986.3248291015625,-0.1754760593175888,0.2593994140625,0.0839233323931694
1711460716.132173,-17.643468856811523,-21.367523193359375,982.9671020507812,0.0457763634622097,-0.03814697265625,-0.0495910607278347
1711460716.1423862,-19.597070693969727,-22.52747344970703,978.4494018554688,0.0762939453125,0.034332275390625,0.0915527269244194
1711460716.152672,-19.597070693969727,-22.52747344970703,978.4494018554688,0.0762939453125,0.034332275390625,0.0915527269244194
1711460716.162748,-13.980464935302734,-24.60317611694336,982.6007690429688,0.02670287899672985,-0.12969970703125,-0.03051757626235485
1711460716.1730294,-13.980464935302734,-24.60317611694336,982.6007690429688,0.02670287899672985,-0.12969970703125,-0.03051757626235485
1711460716.1832428,-9.645910263061523,-32.05128479003906,980.3419189453125,-0.072479248046875,0.0610351525247097,-0.015258788131177425
1711460716.1933985,-13.7362642288208,-31.196582794189453,978.0830688476562,0.0419616661965847,0.141143798828125,0.1678466647863388
1711460716.2036006,-13.7362642288208,-31.196582794189453,978.0830688476562,0.0419616661965847,0.141143798828125,0.1678466647863388
1711460716.2138278,-18.376070022583008,-26.251527786254883,974.0537719726562,-0.0991821214556694,-0.007629394065588713,0.0915527269244194
1711460716.224041,-18.376070022583008,-26.251527786254883,974.0537719726562,-0.0991821214556694,-0.007629394065588713,0.0915527269244194
1711460716.234147,-18.4981689453125,-22.588523864746094,981.1355590820312,0.0419616661965847,0.1068115159869194,0.0
1711460716.2443628,-15.140416145324707,-25.57997703552246,981.80712890625,0.148773193359375,0.1182556077837944,-0.007629394065588713
1711460716.2546115,-15.140416145324707,-25.57997703552246,981.80712890625,0.148773193359375,0.1182556077837944,-0.007629394065588713
1711460716.2654529,-19.35287094116211,-23.076923370361328,979.91455078125,0.0762939453125,0.1068115159869194,0.2021789401769638
1711460716.2756522,-15.567766189575195,-29.914531707763672,979.1209106445312,0.0457763634622097,-0.02288818173110485,0.02288818173110485
1711460716.2864296,-15.567766189575195,-29.914531707763672,979.1209106445312,0.0457763634622097,-0.02288818173110485,0.02288818173110485
1711460716.2965956,-13.55311393737793,-23.99267578125,988.5836791992188,0.1144409105181694,0.0419616661965847,0.12969970703125
1711460716.3069973,-13.55311393737793,-23.99267578125,988.5836791992188,0.1144409105181694,0.0419616661965847,0.12969970703125
1711460716.3172398,-12.515263557434082,-21.611722946166992,982.0513305664062,0.019073486328125,-0.06866455078125,-0.019073486328125
1711460716.3275504,-12.515263557434082,-21.611722946166992,982.0513305664062,0.019073486328125,-0.06866455078125,-0.019073486328125
1711460716.3378658,-12.881563186645508,-19.04762077331543,979.4262084960938,-0.0038146970327943563,0.133514404296875,-0.1640319675207138
1711460716.3479207,-12.087912559509277,-30.952383041381836,978.0830688476562,0.02670287899672985,-0.0419616661965847,0.1029968187212944
1711460716.35802,-12.087912559509277,-30.952383041381836,978.0830688476562,0.02670287899672985,-0.0419616661965847,0.1029968187212944
1711460716.368336,-9.951160430908203,-23.260074615478516,977.3504638671875,-0.12969970703125,-0.1068115159869194,0.125885009765625
1711460716.3785555,-9.951160430908203,-23.260074615478516,977.3504638671875,-0.12969970703125,-0.1068115159869194,0.125885009765625
1711460716.388839,-14.774115562438965,-21.794872283935547,983.5165405273438,0.0572204552590847,-0.0038146970327943563,-0.0877380296587944
1711460716.3990734,-19.35287094116211,-31.562883377075195,977.2283935546875,0.1869201511144638,-0.03051757626235485,0.03051757626235485
1711460716.4092834,-19.35287094116211,-31.562883377075195,977.2283935546875,0.1869201511144638,-0.03051757626235485,0.03051757626235485
1711460716.4193997,-20.390722274780273,-21.55067253112793,981.4408569335938,0.064849853515625,0.011444090865552425,-0.1182556077837944
1711460716.430006,-15.201465606689453,-25.396825790405273,977.8388671875,-0.0495910607278347,-0.0419616661965847,-0.0801086351275444
1711460716.4402723,-15.201465606689453,-25.396825790405273,977.8388671875,-0.0495910607278347,-0.0419616661965847,-0.0801086351275444
1711460716.4502616,-14.04151439666748,-23.44322395324707,980.2198486328125,-0.1106262132525444,0.0419616661965847,0.1144409105181694
1711460716.4608555,-14.04151439666748,-23.44322395324707,980.2198486328125,-0.1106262132525444,0.0419616661965847,0.1144409105181694
1711460716.470932,-17.032968521118164,-25.5189266204834,986.3858642578125,-0.007629394065588713,0.0495910607278347,0.141143798828125
1711460716.4812596,-16.849817276000977,-20.818071365356445,985.1648559570312,0.0457763634622097,0.019073486328125,0.1983642429113388
1711460716.4914868,-16.849817276000977,-20.818071365356445,985.1648559570312,0.0457763634622097,0.019073486328125,0.1983642429113388
1711460716.5015357,-20.390722274780273,-19.169719696044922,975.2137451171875,0.064849853515625,0.019073486328125,0.007629394065588713
1711460716.5165522,-25.824176788330078,-25.335777282714844,982.6618041992188,0.0991821214556694,0.152587890625,0.011444090865552425
1711460716.526748,-25.824176788330078,-25.335777282714844,982.6618041992188,0.0991821214556694,0.152587890625,0.011444090865552425
1711460716.5368447,-9.523810386657715,-27.167278289794922,980.9524536132812,-0.0534057579934597,0.0762939453125,0.1602172702550888
1711460716.5471418,-9.523810386657715,-27.167278289794922,980.9524536132812,-0.0534057579934597,0.0762939453125,0.1602172702550888
1711460716.557584,-15.323566436767578,-23.076923370361328,983.2723388671875,-0.02670287899672985,-0.06866455078125,0.1220703050494194
1711460716.567524,-15.323566436767578,-23.076923370361328,983.2723388671875,-0.02670287899672985,-0.06866455078125,0.1220703050494194
1711460716.5776732,-21.367523193359375,-23.321125030517578,982.2955322265625,0.072479248046875,0.0801086351275444,-0.06866455078125
1711460716.5879576,-21.367523193359375,-23.321125030517578,982.2955322265625,0.072479248046875,0.0801086351275444,-0.06866455078125
1711460716.5981288,-11.904762268066406,-29.120880126953125,982.1734619140625,0.0953674241900444,0.0762939453125,0.034332275390625
1711460716.6082811,-11.904762268066406,-29.120880126953125,982.1734619140625,0.0953674241900444,0.0762939453125,0.034332275390625
1711460716.6185055,-15.811966896057129,-21.55067253112793,984.5543823242188,0.0495910607278347,0.019073486328125,0.141143798828125
1711460716.6287808,-15.811966896057129,-21.55067253112793,984.5543823242188,0.0495910607278347,0.019073486328125,0.141143798828125
1711460716.6390014,-18.74237060546875,-22.954824447631836,980.5861206054688,-0.011444090865552425,0.1068115159869194,-0.072479248046875
1711460716.6490667,-18.74237060546875,-22.954824447631836,980.5861206054688,-0.011444090865552425,0.1068115159869194,-0.072479248046875
1711460716.6593883,-12.210012435913086,-29.304031372070312,983.3944091796875,0.1602172702550888,0.0801086351275444,-0.1640319675207138
1711460716.6695545,-12.210012435913086,-29.304031372070312,983.3944091796875,0.1602172702550888,0.0801086351275444,-0.1640319675207138
1711460716.6796622,-17.21611785888672,-28.144079208374023,980.6471557617188,0.1602172702550888,0.06866455078125,0.03051757626235485
1711460716.6900487,-17.21611785888672,-28.144079208374023,980.6471557617188,0.1602172702550888,0.06866455078125,0.03051757626235485
1711460716.7001753,-9.40170955657959,-22.344324111938477,987.72900390625,-0.064849853515625,-0.12969970703125,0.25177001953125
1711460716.7108157,-13.7362642288208,-31.501832962036133,983.0281372070312,-0.0991821214556694,-0.14495849609375,-0.0762939453125
1711460716.7208314,-13.7362642288208,-31.501832962036133,983.0281372070312,-0.0991821214556694,-0.14495849609375,-0.0762939453125
1711460716.7308676,-14.652015686035156,-23.504274368286133,979.5482788085938,-0.1144409105181694,-0.0877380296587944,0.0038146970327943563
1711460716.7411113,-14.652015686035156,-23.504274368286133,979.5482788085938,-0.1144409105181694,-0.0877380296587944,0.0038146970327943563
1711460716.7513313,-16.544567108154297,-28.08302879333496,985.83642578125,0.0038146970327943563,-0.1792907565832138,0.0915527269244194
1711460716.7644145,-8.79120922088623,-15.079365730285645,979.91455078125,-0.0457763634622097,0.133514404296875,0.064849853515625
1711460716.774647,-8.79120922088623,-15.079365730285645,979.91455078125,-0.0457763634622097,0.133514404296875,0.064849853515625
1711460716.7848701,-14.04151439666748,-22.893774032592773,986.4469604492188,-0.0038146970327943563,-0.011444090865552425,0.141143798828125
1711460716.7949548,-16.483516693115234,-22.83272361755371,976.9231567382812,0.1869201511144638,-0.1792907565832138,0.1754760593175888
1711460716.8052936,-16.483516693115234,-22.83272361755371,976.9231567382812,0.1869201511144638,-0.1792907565832138,0.1754760593175888
1711460716.815612,-17.21611785888672,-23.076923370361328,984.859619140625,0.1373291015625,-0.0801086351275444,0.015258788131177425
1711460716.8257105,-17.21611785888672,-23.076923370361328,984.859619140625,0.1373291015625,-0.0801086351275444,0.015258788131177425
1711460716.836146,-12.515263557434082,-27.533578872680664,984.0659790039062,0.0877380296587944,0.06866455078125,-0.0419616661965847
1711460716.8462946,-12.515263557434082,-27.533578872680664,984.0659790039062,0.0877380296587944,0.06866455078125,-0.0419616661965847
1711460716.85648,-14.835165977478027,-28.38827896118164,987.1795654296875,-0.007629394065588713,-0.0457763634622097,-0.14495849609375
1711460716.8668294,-14.835165977478027,-28.38827896118164,987.1795654296875,-0.007629394065588713,-0.0457763634622097,-0.14495849609375
1711460716.8769293,-14.835165977478027,-28.38827896118164,987.1795654296875,-0.007629394065588713,-0.0457763634622097,-0.14495849609375
1711460716.8873484,-17.704519271850586,-23.44322395324707,979.6093139648438,-0.03051757626235485,-0.0457763634622097,0.1106262132525444
1711460716.8974876,-17.704519271850586,-23.44322395324707,979.6093139648438,-0.03051757626235485,-0.0457763634622097,0.1106262132525444
1711460716.9079907,-13.308914184570312,-25.946277618408203,981.1966552734375,-0.0991821214556694,-0.064849853515625,0.1106262132525444
1711460716.918074,-11.782662391662598,-26.129426956176758,976.2515869140625,0.034332275390625,0.1678466647863388,0.152587890625
1711460716.9282365,-11.782662391662598,-26.129426956176758,976.2515869140625,0.034332275390625,0.1678466647863388,0.152587890625
1711460716.938399,-21.184371948242188,-28.205129623413086,986.691162109375,0.1144409105181694,-0.125885009765625,0.0457763634622097
1711460716.948659,-21.184371948242188,-28.205129623413086,986.691162109375,0.1144409105181694,-0.125885009765625,0.0457763634622097
1711460716.9587271,-5.92185640335083,-27.35042953491211,973.9927368164062,0.0457763634622097,0.141143798828125,-0.0038146970327943563
1711460716.969003,-5.92185640335083,-27.35042953491211,973.9927368164062,0.0457763634622097,0.141143798828125,-0.0038146970327943563
1711460716.9791017,-10.378510475158691,-28.63248062133789,984.9817504882812,0.148773193359375,-0.034332275390625,0.0953674241900444
1711460716.9893055,-10.378510475158691,-28.63248062133789,984.9817504882812,0.148773193359375,-0.034332275390625,0.0953674241900444
1711460716.9994736,-10.256410598754883,-25.030527114868164,982.1734619140625,-0.011444090865552425,0.1068115159869194,-0.125885009765625
1711460717.009786,-20.26862144470215,-25.335777282714844,984.4323120117188,-0.0534057579934597,-0.06866455078125,0.03814697265625
1711460717.0200682,-20.26862144470215,-25.335777282714844,984.4323120117188,-0.0534057579934597,-0.06866455078125,0.03814697265625
1711460717.036494,-25.457876205444336,-23.809524536132812,983.3944091796875,0.0915527269244194,-0.0762939453125,-0.064849853515625
1711460717.0468378,-12.63736343383789,-27.228328704833984,987.0574340820312,-0.0801086351275444,-0.0877380296587944,0.1106262132525444
1711460717.0571117,-12.63736343383789,-27.228328704833984,987.0574340820312,-0.0801086351275444,-0.0877380296587944,0.1106262132525444
1711460717.0672793,-9.218559265136719,-25.946277618408203,971.73388671875,-0.1068115159869194,-0.0457763634622097,0.12969970703125
1711460717.0774727,-9.218559265136719,-25.946277618408203,971.73388671875,-0.1068115159869194,-0.0457763634622097,0.12969970703125
1711460717.0878153,-11.721611976623535,-19.35287094116211,975.2137451171875,0.0457763634622097,-0.0915527269244194,0.1983642429113388
1711460717.0977743,-11.721611976623535,-19.35287094116211,975.2137451171875,0.0457763634622097,-0.0915527269244194,0.1983642429113388
1711460717.1082578,-18.4981689453125,-29.426130294799805,984.2491455078125,0.133514404296875,-0.06866455078125,0.007629394065588713
1711460717.1182215,-13.614164352416992,-31.379732131958008,986.4469604492188,0.0610351525247097,-0.02670287899672985,0.007629394065588713
1711460717.1285279,-13.614164352416992,-31.379732131958008,986.4469604492188,0.0610351525247097,-0.02670287899672985,0.007629394065588713
1711460717.1389225,-8.913309097290039,-28.998781204223633,986.1416625976562,0.02288818173110485,-0.1792907565832138,0.1792907565832138
1711460717.1491406,-8.913309097290039,-28.998781204223633,986.1416625976562,0.02288818173110485,-0.1792907565832138,0.1792907565832138
1711460717.1591725,-13.675214767456055,-24.60317611694336,978.2662353515625,0.1602172702550888,-0.1068115159869194,0.1602172702550888
1711460717.169413,-13.675214767456055,-24.60317611694336,978.2662353515625,0.1602172702550888,-0.1068115159869194,0.1602172702550888
1711460717.1795278,-17.094017028808594,-21.916973114013672,979.3040771484375,-0.06866455078125,-0.03814697265625,0.148773193359375
1711460717.1899362,-17.094017028808594,-21.916973114013672,979.3040771484375,-0.06866455078125,-0.03814697265625,0.148773193359375
1711460717.1999233,-16.544567108154297,-19.4749698638916,990.4762573242188,-0.1373291015625,-0.1220703050494194,0.007629394065588713
1711460717.2102108,-15.262516021728516,-30.891332626342773,979.853515625,-0.1029968187212944,0.1068115159869194,0.02670287899672985
1711460717.221045,-15.262516021728516,-30.891332626342773,979.853515625,-0.1029968187212944,0.1068115159869194,0.02670287899672985
1711460717.2307043,-18.681320190429688,-23.931625366210938,985.71435546875,-0.14495849609375,-0.0953674241900444,0.2250671237707138
1711460717.241053,-18.681320190429688,-23.931625366210938,985.71435546875,-0.14495849609375,-0.0953674241900444,0.2250671237707138
1711460717.2513406,-15.262516021728516,-16.788766860961914,982.4176025390625,0.0877380296587944,0.0038146970327943563,0.0839233323931694
1711460717.261469,-15.934066772460938,-30.647132873535156,979.7314453125,0.0877380296587944,-0.019073486328125,0.2136230319738388
1711460717.2718651,-15.934066772460938,-30.647132873535156,979.7314453125,0.0877380296587944,-0.019073486328125,0.2136230319738388
1711460717.2820199,-12.332113265991211,-32.35653305053711,989.6826171875,0.14495849609375,-0.2021789401769638,-0.1640319675207138
1711460717.2921503,-12.332113265991211,-32.35653305053711,989.6826171875,0.14495849609375,-0.2021789401769638,-0.1640319675207138
1711460717.3023388,-17.338218688964844,-26.373628616333008,979.5482788085938,0.30517578125,-0.02288818173110485,0.1182556077837944
1711460717.3124459,-17.338218688964844,-26.373628616333008,979.5482788085938,0.30517578125,-0.02288818173110485,0.1182556077837944
1711460717.3227754,-15.018315315246582,-29.426130294799805,980.6471557617188,0.1068115159869194,-0.1869201511144638,0.0038146970327943563
1711460717.3329058,-16.60561752319336,-27.594629287719727,977.2894287109375,0.02288818173110485,-0.141143798828125,0.1373291015625
1711460717.3431027,-16.60561752319336,-27.594629287719727,977.2894287109375,0.02288818173110485,-0.141143798828125,0.1373291015625
1711460717.353153,-13.7362642288208,-28.754579544067383,982.4176025390625,-0.02670287899672985,-0.1144409105181694,-0.133514404296875
1711460717.363322,-13.7362642288208,-28.754579544067383,982.4176025390625,-0.02670287899672985,-0.1144409105181694,-0.133514404296875
1711460717.3735647,-22.100122451782227,-26.678878784179688,979.2430419921875,-0.02288818173110485,-0.011444090865552425,-0.072479248046875
1711460717.383631,-22.100122451782227,-26.678878784179688,979.2430419921875,-0.02288818173110485,-0.011444090865552425,-0.072479248046875
1711460717.3939257,-16.60561752319336,-20.818071365356445,982.5397338867188,-0.1029968187212944,-0.0534057579934597,0.1144409105181694
1711460717.404033,-16.60561752319336,-20.818071365356445,982.5397338867188,-0.1029968187212944,-0.0534057579934597,0.1144409105181694
1711460717.4143836,-10.317461013793945,-28.08302879333496,985.1648559570312,-0.011444090865552425,0.0991821214556694,0.02288818173110485
1711460717.424834,-10.317461013793945,-28.08302879333496,985.1648559570312,-0.011444090865552425,0.0991821214556694,0.02288818173110485
1711460717.4346962,-10.317461013793945,-28.08302879333496,985.1648559570312,-0.011444090865552425,0.0991821214556694,0.02288818173110485
1711460717.4450915,-8.669109344482422,-33.333335876464844,979.67041015625,-0.072479248046875,-0.0877380296587944,0.1754760593175888
1711460717.4552767,-8.669109344482422,-33.333335876464844,979.67041015625,-0.072479248046875,-0.0877380296587944,0.1754760593175888
1711460717.4654782,-19.65812110900879,-29.914531707763672,982.844970703125,0.0534057579934597,-0.0610351525247097,0.02670287899672985
1711460717.4758656,-19.65812110900879,-29.914531707763672,982.844970703125,0.0534057579934597,-0.0610351525247097,0.02670287899672985
1711460717.4857762,-12.332113265991211,-24.175825119018555,982.906005859375,0.2021789401769638,-0.2136230319738388,-0.072479248046875
1711460717.4959831,-16.9719181060791,-28.63248062133789,988.705810546875,-0.03051757626235485,0.019073486328125,0.2021789401769638
1711460717.5062132,-16.9719181060791,-28.63248062133789,988.705810546875,-0.03051757626235485,0.019073486328125,0.2021789401769638
1711460717.5163894,-16.9719181060791,-28.63248062133789,988.705810546875,-0.03051757626235485,0.019073486328125,0.2021789401769638
1711460717.5265968,-15.689866065979004,-27.10622787475586,978.6325073242188,0.1907348483800888,0.0762939453125,0.0038146970327943563
1711460717.5368593,-13.125763893127441,-26.007328033447266,979.5482788085938,-0.0839233323931694,0.0,-0.1106262132525444
1711460717.5470383,-13.125763893127441,-26.007328033447266,979.5482788085938,-0.0839233323931694,0.0,-0.1106262132525444
1711460717.5572886,-11.477412223815918,-24.90842628479004,978.6325073242188,0.1792907565832138,-0.0457763634622097,0.0572204552590847
1711460717.5674038,-11.477412223815918,-24.90842628479004,978.6325073242188,0.1792907565832138,-0.0457763634622097,0.0572204552590847
1711460717.5777662,-13.980464935302734,-26.129426956176758,974.4200439453125,0.03814697265625,-0.03051757626235485,-0.072479248046875
1711460717.5878942,-17.704519271850586,-24.786325454711914,977.3504638671875,0.1144409105181694,0.308990478515625,-0.015258788131177425
1711460717.5981207,-17.704519271850586,-24.786325454711914,977.3504638671875,0.1144409105181694,0.308990478515625,-0.015258788131177425
1711460717.6082084,-16.666667938232422,-23.870574951171875,979.91455078125,0.0991821214556694,0.1831054538488388,-0.064849853515625
1711460717.6186018,-16.666667938232422,-23.870574951171875,979.91455078125,0.0991821214556694,0.1831054538488388,-0.064849853515625
1711460717.6287885,-15.628816604614258,-27.838829040527344,977.716796875,0.1640319675207138,-0.007629394065588713,-0.011444090865552425
1711460717.6390898,-15.628816604614258,-27.838829040527344,977.716796875,0.1640319675207138,-0.007629394065588713,-0.011444090865552425
1711460717.649267,-13.85836410522461,-24.664226531982422,983.5775756835938,0.034332275390625,-0.015258788131177425,0.1220703050494194
1711460717.659658,-12.698412895202637,-32.478633880615234,980.2808837890625,0.1068115159869194,-0.1029968187212944,0.125885009765625
1711460717.6697803,-12.698412895202637,-32.478633880615234,980.2808837890625,0.1068115159869194,-0.1029968187212944,0.125885009765625
1711460717.6798558,-20.26862144470215,-23.44322395324707,979.1209106445312,0.0,-0.0839233323931694,-0.02670287899672985
1711460717.6901062,-9.340660095214844,-29.059829711914062,977.0452270507812,0.1373291015625,-0.06866455078125,0.015258788131177425
1711460717.700324,-9.340660095214844,-29.059829711914062,977.0452270507812,0.1373291015625,-0.06866455078125,0.015258788131177425
1711460717.7110016,-11.050061225891113,-22.283273696899414,977.5946655273438,0.064849853515625,0.0534057579934597,0.0
1711460717.7210968,-11.050061225891113,-22.283273696899414,977.5946655273438,0.064849853515625,0.0534057579934597,0.0
1711460717.7313797,-10.744811058044434,-25.091575622558594,980.830322265625,0.06866455078125,0.019073486328125,0.02288818173110485
1711460717.7418492,-13.064713478088379,-26.068376541137695,985.2869873046875,0.0457763634622097,-0.1144409105181694,0.03814697265625
1711460717.7520096,-13.064713478088379,-26.068376541137695,985.2869873046875,0.0457763634622097,-0.1144409105181694,0.03814697265625
1711460717.7622142,-11.599512100219727,-24.236875534057617,972.5885620117188,0.03051757626235485,0.125885009765625,0.0610351525247097
1711460717.7724943,-11.599512100219727,-24.236875534057617,972.5885620117188,0.03051757626235485,0.125885009765625,0.0610351525247097
1711460717.7828865,-15.201465606689453,-28.510379791259766,972.4053955078125,0.0,0.019073486328125,0.072479248046875
1711460717.7928689,-15.201465606689453,-28.510379791259766,972.4053955078125,0.0,0.019073486328125,0.072479248046875
1711460717.80306,-16.727718353271484,-31.868133544921875,982.6618041992188,-0.0610351525247097,0.0419616661965847,0.0495910607278347
1711460717.8133879,-24.60317611694336,-18.4981689453125,983.69970703125,0.2479553073644638,0.1373291015625,0.0495910607278347
1711460717.8237183,-24.60317611694336,-18.4981689453125,983.69970703125,0.2479553073644638,0.1373291015625,0.0495910607278347
1711460717.8342366,-11.782662391662598,-30.708181381225586,979.3040771484375,0.0534057579934597,0.1182556077837944,0.1945495456457138
1711460717.8440921,-18.80341911315918,-24.420024871826172,971.3675537109375,0.1220703050494194,0.255584716796875,0.0572204552590847
1711460717.8544066,-18.80341911315918,-24.420024871826172,971.3675537109375,0.1220703050494194,0.255584716796875,0.0572204552590847
1711460717.8646846,-17.399269104003906,-19.536020278930664,982.5397338867188,0.06866455078125,-0.2059936374425888,0.26702880859375
1711460717.8747559,-17.399269104003906,-19.536020278930664,982.5397338867188,0.06866455078125,-0.2059936374425888,0.26702880859375
1711460717.885335,-15.689866065979004,-27.41147804260254,980.0366821289062,-0.0839233323931694,-0.1220703050494194,0.1678466647863388
1711460717.8954809,-18.681320190429688,-29.181930541992188,982.844970703125,0.011444090865552425,-0.0419616661965847,0.2174377292394638
1711460717.9057443,-18.681320190429688,-29.181930541992188,982.844970703125,0.011444090865552425,-0.0419616661965847,0.2174377292394638
1711460717.9159658,-20.63492202758789,-24.236875534057617,978.9988403320312,-0.14495849609375,-0.1144409105181694,0.152587890625
1711460717.926117,-20.63492202758789,-24.236875534057617,978.9988403320312,-0.14495849609375,-0.1144409105181694,0.152587890625
1711460717.9361084,-10.989011764526367,-26.739927291870117,978.9988403320312,0.0572204552590847,0.019073486328125,-0.0457763634622097
1711460717.9463615,-10.989011764526367,-26.739927291870117,978.9988403320312,0.0572204552590847,0.019073486328125,-0.0457763634622097
1711460717.9565742,-11.172162055969238,-33.089134216308594,983.82177734375,0.14495849609375,-0.06866455078125,-0.064849853515625
1711460717.96697,-13.55311393737793,-25.702077865600586,975.5189819335938,-0.06866455078125,-0.064849853515625,0.072479248046875
1711460717.977209,-13.55311393737793,-25.702077865600586,975.5189819335938,-0.06866455078125,-0.064849853515625,0.072479248046875
1711460717.987304,-17.704519271850586,-24.9694766998291,981.1966552734375,-0.011444090865552425,0.1831054538488388,0.0038146970327943563
1711460717.9978201,-17.704519271850586,-24.9694766998291,981.1966552734375,-0.011444090865552425,0.1831054538488388,0.0038146970327943563
1711460718.0080004,-16.60561752319336,-23.38217544555664,976.862060546875,-0.1869201511144638,0.0495910607278347,0.0839233323931694
1711460718.0181787,-16.60561752319336,-23.38217544555664,976.862060546875,-0.1869201511144638,0.0495910607278347,0.0839233323931694
1711460718.0282996,-9.462759971618652,-24.9694766998291,977.8388671875,0.3547668159008026,-0.0534057579934597,0.02288818173110485
1711460718.0386336,-15.750916481018066,-27.04517936706543,977.4114990234375,0.1602172702550888,0.06866455078125,-0.019073486328125
1711460718.0487309,-15.750916481018066,-27.04517936706543,977.4114990234375,0.1602172702550888,0.06866455078125,-0.019073486328125
1711460718.0590177,-18.864469528198242,-25.091575622558594,978.9988403320312,0.1182556077837944,0.0572204552590847,-0.1754760593175888
1711460718.06913,-15.9951171875,-29.975582122802734,977.0452270507812,0.0762939453125,-0.072479248046875,0.1640319675207138
1711460718.0794146,-15.9951171875,-29.975582122802734,977.0452270507812,0.0762939453125,-0.072479248046875,0.1640319675207138
1711460718.0897,-9.09645938873291,-27.96092987060547,977.5946655273438,0.034332275390625,0.125885009765625,0.06866455078125
1711460718.0999174,-9.09645938873291,-27.96092987060547,977.5946655273438,0.034332275390625,0.125885009765625,0.06866455078125
1711460718.1101341,-10.989011764526367,-27.96092987060547,985.5311889648438,-0.0419616661965847,-0.0953674241900444,-0.0419616661965847
1711460718.1201415,-10.989011764526367,-27.96092987060547,985.5311889648438,-0.0419616661965847,-0.0953674241900444,-0.0419616661965847
1711460718.1302874,-12.63736343383789,-26.373628616333008,975.3968505859375,0.0877380296587944,-0.1029968187212944,0.015258788131177425
1711460718.1406863,-14.957265853881836,-24.72527503967285,984.4933471679688,0.011444090865552425,0.03814697265625,0.14495849609375
1711460718.1508617,-14.957265853881836,-24.72527503967285,984.4933471679688,0.011444090865552425,0.03814697265625,0.14495849609375
1711460718.1610796,-15.811966896057129,-29.670331954956055,986.4469604492188,-0.1678466647863388,-0.133514404296875,0.1983642429113388
1711460718.171302,-15.811966896057129,-29.670331954956055,986.4469604492188,-0.1678466647863388,-0.133514404296875,0.1983642429113388
1711460718.1818886,-11.538461685180664,-21.306472778320312,985.0427856445312,-0.1716613620519638,-0.0877380296587944,0.1182556077837944
1711460718.191979,-11.538461685180664,-21.306472778320312,985.0427856445312,-0.1716613620519638,-0.0877380296587944,0.1182556077837944
1711460718.2024035,-17.948719024658203,-29.975582122802734,988.766845703125,-0.133514404296875,0.007629394065588713,0.064849853515625
1711460718.2123861,-16.056167602539062,-21.367523193359375,988.1563110351562,0.1182556077837944,0.015258788131177425,0.125885009765625
1711460718.222777,-16.056167602539062,-21.367523193359375,988.1563110351562,0.1182556077837944,0.015258788131177425,0.125885009765625
1711460718.2327697,-17.155067443847656,-27.899879455566406,982.1123657226562,0.1907348483800888,-0.072479248046875,0.0610351525247097
1711460718.2432766,-17.155067443847656,-27.899879455566406,982.1123657226562,0.1907348483800888,-0.072479248046875,0.0610351525247097
1711460718.2533846,-17.155067443847656,-27.899879455566406,982.1123657226562,0.1907348483800888,-0.072479248046875,0.0610351525247097
1711460718.263582,-12.698412895202637,-27.35042953491211,980.769287109375,0.0572204552590847,-0.0419616661965847,0.0534057579934597
1711460718.2738714,-17.338218688964844,-22.283273696899414,980.5861206054688,-0.0038146970327943563,-0.1182556077837944,0.0038146970327943563
1711460718.2838943,-17.338218688964844,-22.283273696899414,980.5861206054688,-0.0038146970327943563,-0.1182556077837944,0.0038146970327943563
1711460718.2940204,-17.948719024658203,-25.091575622558594,983.3944091796875,0.308990478515625,-0.152587890625,0.0839233323931694
1711460718.3042798,-17.948719024658203,-25.091575622558594,983.3944091796875,0.308990478515625,-0.152587890625,0.0839233323931694
1711460718.314616,-13.55311393737793,-22.52747344970703,976.1905517578125,0.148773193359375,-0.1106262132525444,0.148773193359375
1711460718.3247948,-13.55311393737793,-22.52747344970703,976.1905517578125,0.148773193359375,-0.1106262132525444,0.148773193359375
1711460718.334945,-14.468865394592285,-22.893774032592773,982.9671020507812,0.1716613620519638,0.019073486328125,0.0572204552590847
1711460718.3452613,-14.468865394592285,-22.893774032592773,982.9671020507812,0.1716613620519638,0.019073486328125,0.0572204552590847
1711460718.355411,-17.826618194580078,-24.114774703979492,977.1672973632812,-0.12969970703125,-0.1945495456457138,0.0915527269244194
1711460718.3655114,-8.852259635925293,-24.29792594909668,980.6471557617188,0.255584716796875,-0.064849853515625,0.0991821214556694
1711460718.3756263,-8.852259635925293,-24.29792594909668,980.6471557617188,0.255584716796875,-0.064849853515625,0.0991821214556694
1711460718.386121,-14.835165977478027,-23.626375198364258,978.1441040039062,0.034332275390625,-0.015258788131177425,-0.007629394065588713
1711460718.3963282,-14.835165977478027,-23.626375198364258,978.1441040039062,0.034332275390625,-0.015258788131177425,-0.007629394065588713
1711460718.4065943,-24.60317611694336,-23.565324783325195,978.0830688476562,0.1182556077837944,0.0572204552590847,0.0610351525247097
1711460718.4166899,-24.60317611694336,-23.565324783325195,978.0830688476562,0.1182556077837944,0.0572204552590847,0.0610351525247097
1711460718.4268935,-17.765567779541016,-32.35653305053711,988.3394775390625,0.06866455078125,0.0419616661965847,0.034332275390625
1711460718.4371128,-11.782662391662598,-26.251527786254883,981.4408569335938,-0.034332275390625,0.019073486328125,0.0038146970327943563
1711460718.4473424,-11.782662391662598,-26.251527786254883,981.4408569335938,-0.034332275390625,0.019073486328125,0.0038146970327943563
1711460718.4577403,-11.111111640930176,-26.007328033447266,980.891357421875,-0.156402587890625,-0.0534057579934597,0.0495910607278347
1711460718.4678142,-11.111111640930176,-26.007328033447266,980.891357421875,-0.156402587890625,-0.0534057579934597,0.0495910607278347
1711460718.4781883,-15.750916481018066,-26.434677124023438,987.2406005859375,0.1144409105181694,-0.0839233323931694,0.007629394065588713
1711460718.488055,-15.750916481018066,-26.434677124023438,987.2406005859375,0.1144409105181694,-0.0839233323931694,0.007629394065588713
1711460718.498231,-20.390722274780273,-24.786325454711914,981.68505859375,-0.02670287899672985,-0.1182556077837944,-0.015258788131177425
1711460718.508387,-20.390722274780273,-24.786325454711914,981.68505859375,-0.02670287899672985,-0.1182556077837944,-0.015258788131177425
1711460718.5186605,-15.018315315246582,-27.96092987060547,988.0342407226562,0.0457763634622097,-0.2021789401769638,0.0762939453125
1711460718.5288057,-16.361417770385742,-29.181930541992188,983.3333740234375,0.1792907565832138,-0.2021789401769638,-0.0457763634622097
1711460718.5419545,-16.361417770385742,-29.181930541992188,983.3333740234375,0.1792907565832138,-0.2021789401769638,-0.0457763634622097
1711460718.552044,-15.323566436767578,-28.449329376220703,979.2430419921875,0.015258788131177425,0.0572204552590847,0.1068115159869194
1711460718.5624664,-17.155067443847656,-27.289379119873047,980.0366821289062,0.278472900390625,-0.0877380296587944,0.1068115159869194
1711460718.5725012,-17.155067443847656,-27.289379119873047,980.0366821289062,0.278472900390625,-0.0877380296587944,0.1068115159869194
1711460718.5828395,-12.94261360168457,-25.824176788330078,984.859619140625,-0.0038146970327943563,-0.0839233323931694,0.0495910607278347
1711460718.5930665,-12.94261360168457,-25.824176788330078,984.859619140625,-0.0038146970327943563,-0.0839233323931694,0.0495910607278347
1711460718.6084008,-14.285715103149414,-26.862028121948242,984.0049438476562,-0.0495910607278347,-0.1640319675207138,0.1792907565832138
1711460718.6185899,-14.285715103149414,-26.862028121948242,984.0049438476562,-0.0495910607278347,-0.1640319675207138,0.1792907565832138
1711460718.6289136,-15.567766189575195,-25.641027450561523,977.1672973632812,-0.019073486328125,-0.06866455078125,0.02288818173110485
1711460718.6390207,-15.567766189575195,-25.641027450561523,977.1672973632812,-0.019073486328125,-0.06866455078125,0.02288818173110485
1711460718.64906,-15.750916481018066,-26.556777954101562,984.798583984375,-0.0038146970327943563,-0.0762939453125,-0.019073486328125
1711460718.6591938,-17.826618194580078,-26.862028121948242,986.0806274414062,0.02670287899672985,0.1182556077837944,0.0495910607278347
1711460718.66969,-17.826618194580078,-26.862028121948242,986.0806274414062,0.02670287899672985,0.1182556077837944,0.0495910607278347
1711460718.679771,-18.070819854736328,-26.434677124023438,984.6154174804688,0.0762939453125,-0.1792907565832138,-0.0534057579934597
1711460718.6900332,-18.070819854736328,-26.434677124023438,984.6154174804688,0.0762939453125,-0.1792907565832138,-0.0534057579934597
1711460718.7001555,-13.614164352416992,-30.097681045532227,986.9963989257812,0.1678466647863388,-0.1182556077837944,0.1029968187212944
1711460718.7104394,-13.614164352416992,-30.097681045532227,986.9963989257812,0.1678466647863388,-0.1182556077837944,0.1029968187212944
1711460718.7206256,-21.55067253112793,-26.862028121948242,983.0891723632812,-0.0839233323931694,0.0419616661965847,0.034332275390625
1711460718.7308128,-21.55067253112793,-26.862028121948242,983.0891723632812,-0.0839233323931694,0.0419616661965847,0.034332275390625
1711460718.740965,-15.262516021728516,-32.84493637084961,976.801025390625,0.1068115159869194,0.0038146970327943563,0.034332275390625
1711460718.7511106,-15.262516021728516,-32.84493637084961,976.801025390625,0.1068115159869194,0.0038146970327943563,0.034332275390625
1711460718.7612512,-16.849817276000977,-24.114774703979492,989.0720825195312,-0.0038146970327943563,-0.1831054538488388,0.0991821214556694
1711460718.7712836,-18.437118530273438,-23.076923370361328,979.91455078125,0.141143798828125,0.015258788131177425,-0.0534057579934597
1711460718.7816358,-18.437118530273438,-23.076923370361328,979.91455078125,0.141143798828125,0.015258788131177425,-0.0534057579934597
1711460718.791906,-12.881563186645508,-25.152626037597656,988.6447143554688,0.125885009765625,-0.141143798828125,0.06866455078125
1711460718.8019965,-12.881563186645508,-25.152626037597656,988.6447143554688,0.125885009765625,-0.141143798828125,0.06866455078125
1711460718.8121986,-12.45421314239502,-24.72527503967285,983.5775756835938,0.015258788131177425,0.0534057579934597,0.14495849609375
1711460718.8224869,-12.45421314239502,-24.72527503967285,983.5775756835938,0.015258788131177425,0.0534057579934597,0.14495849609375
1711460718.8325517,-15.323566436767578,-24.481075286865234,979.9756469726562,0.1068115159869194,-0.06866455078125,0.141143798828125
1711460718.842585,-14.407814979553223,-34.981685638427734,975.76318359375,0.2174377292394638,0.0495910607278347,0.0
1711460718.8528864,-14.407814979553223,-34.981685638427734,975.76318359375,0.2174377292394638,0.0495910607278347,0.0
1711460718.863112,-19.536020278930664,-27.899879455566406,978.1441040039062,-0.1373291015625,-0.1068115159869194,0.072479248046875
1711460718.8731148,-15.628816604614258,-25.335777282714844,978.1441040039062,0.0457763634622097,0.064849853515625,-0.0457763634622097
1711460718.8832293,-15.628816604614258,-25.335777282714844,978.1441040039062,0.0457763634622097,0.064849853515625,-0.0457763634622097
1711460718.8934758,-16.30036735534668,-26.984128952026367,978.876708984375,0.1182556077837944,0.03051757626235485,-0.019073486328125
1711460718.9038434,-16.30036735534668,-26.984128952026367,978.876708984375,0.1182556077837944,0.03051757626235485,-0.019073486328125
1711460718.9139864,-18.620269775390625,-28.205129623413086,982.906005859375,0.148773193359375,-0.03814697265625,0.0610351525247097
1711460718.9240482,-18.620269775390625,-28.205129623413086,982.906005859375,0.148773193359375,-0.03814697265625,0.0610351525247097
1711460718.9343119,-17.58241844177246,-30.402931213378906,984.859619140625,-0.064849853515625,-0.007629394065588713,0.0915527269244194
1711460718.946027,-17.27716827392578,-31.44078254699707,985.4090576171875,0.015258788131177425,0.03814697265625,-0.019073486328125
1711460718.9560616,-17.27716827392578,-31.44078254699707,985.4090576171875,0.015258788131177425,0.03814697265625,-0.019073486328125
1711460718.9664052,-8.60805892944336,-26.373628616333008,981.74609375,0.064849853515625,-0.125885009765625,0.2288818210363388
1711460718.9766738,-19.10866928100586,-26.068376541137695,983.82177734375,0.1792907565832138,0.0419616661965847,-0.0839233323931694
1711460718.9866326,-19.10866928100586,-26.068376541137695,983.82177734375,0.1792907565832138,0.0419616661965847,-0.0839233323931694
1711460718.9971988,-20.63492202758789,-26.129426956176758,979.1820068359375,0.034332275390625,-0.0572204552590847,0.0572204552590847
1711460719.0069995,-20.757020950317383,-26.373628616333008,981.5018920898438,0.06866455078125,-0.1945495456457138,0.286102294921875
1711460719.0174377,-20.757020950317383,-26.373628616333008,981.5018920898438,0.06866455078125,-0.1945495456457138,0.286102294921875
1711460719.0276623,-16.422468185424805,-34.92063522338867,976.1905517578125,0.152587890625,-0.019073486328125,0.0801086351275444
1711460719.0378413,-16.422468185424805,-34.92063522338867,976.1905517578125,0.152587890625,-0.019073486328125,0.0801086351275444
1711460719.0478346,-9.768010139465332,-25.335777282714844,987.6068725585938,0.1869201511144638,-0.03814697265625,-0.1182556077837944
1711460719.0580208,-9.768010139465332,-25.335777282714844,987.6068725585938,0.1869201511144638,-0.03814697265625,-0.1182556077837944
1711460719.0682428,-16.483516693115234,-22.83272361755371,978.3272705078125,-0.03051757626235485,-0.015258788131177425,0.0038146970327943563
1711460719.0784247,-10.561660766601562,-28.754579544067383,979.79248046875,0.02288818173110485,-0.0419616661965847,0.0534057579934597
1711460719.0887878,-10.561660766601562,-28.754579544067383,979.79248046875,0.02288818173110485,-0.0419616661965847,0.0534057579934597
1711460719.09858,-14.713065147399902,-22.46642303466797,977.9609985351562,0.072479248046875,-0.019073486328125,0.0
1711460719.1091242,-14.713065147399902,-22.46642303466797,977.9609985351562,0.072479248046875,-0.019073486328125,0.0
1711460719.1192555,-20.207571029663086,-31.868133544921875,984.0049438476562,0.26702880859375,-0.02670287899672985,0.0534057579934597
1711460719.1292975,-20.207571029663086,-31.868133544921875,984.0049438476562,0.26702880859375,-0.02670287899672985,0.0534057579934597
1711460719.1394005,-9.768010139465332,-23.565324783325195,980.4640502929688,-0.2098083347082138,-0.2136230319738388,-0.0419616661965847
1711460719.1495156,-12.332113265991211,-26.862028121948242,976.0073852539062,0.1907348483800888,-0.0877380296587944,-0.0915527269244194
1711460719.1599681,-12.332113265991211,-26.862028121948242,976.0073852539062,0.1907348483800888,-0.0877380296587944,-0.0915527269244194
1711460719.170096,-18.376070022583008,-24.29792594909668,974.786376953125,0.1182556077837944,0.14495849609375,-0.0991821214556694
1711460719.1802118,-18.376070022583008,-24.29792594909668,974.786376953125,0.1182556077837944,0.14495849609375,-0.0991821214556694
1711460719.1907384,-16.788766860961914,-28.754579544067383,984.5543823242188,0.0610351525247097,0.0762939453125,0.019073486328125
1711460719.2008753,-16.788766860961914,-28.754579544067383,984.5543823242188,0.0610351525247097,0.0762939453125,0.019073486328125
1711460719.2114608,-12.210012435913086,-28.144079208374023,981.5629272460938,0.0419616661965847,0.0877380296587944,-0.1144409105181694
1711460719.2214756,-12.210012435913086,-28.144079208374023,981.5629272460938,0.0419616661965847,0.0877380296587944,-0.1144409105181694
1711460719.231415,-14.835165977478027,-24.90842628479004,986.752197265625,0.0610351525247097,0.0762939453125,0.011444090865552425
1711460719.2416558,-19.65812110900879,-27.167278289794922,976.2515869140625,0.019073486328125,0.011444090865552425,0.0038146970327943563
1711460719.2518713,-19.65812110900879,-27.167278289794922,976.2515869140625,0.019073486328125,0.011444090865552425,0.0038146970327943563
1711460719.2619152,-12.7594633102417,-27.35042953491211,976.1294555664062,0.02288818173110485,0.011444090865552425,0.0915527269244194
1711460719.2723775,-12.7594633102417,-27.35042953491211,976.1294555664062,0.02288818173110485,0.011444090865552425,0.0915527269244194
1711460719.2823315,-16.727718353271484,-28.876680374145508,982.6007690429688,-0.125885009765625,-0.0534057579934597,0.1106262132525444
1711460719.2951136,-16.666667938232422,-26.068376541137695,988.2784423828125,-0.03051757626235485,-0.072479248046875,-0.1029968187212944
1711460719.30542,-16.666667938232422,-26.068376541137695,988.2784423828125,-0.03051757626235485,-0.072479248046875,-0.1029968187212944
1711460719.3155522,-16.239316940307617,-21.85592269897461,987.1184692382812,0.0953674241900444,-0.0572204552590847,-0.0495910607278347
1711460719.326171,-16.239316940307617,-21.85592269897461,987.1184692382812,0.0953674241900444,-0.0572204552590847,-0.0495910607278347
1711460719.3362968,-10.500611305236816,-25.763126373291016,981.1355590820312,-0.064849853515625,-0.0534057579934597,-0.019073486328125
1711460719.3459833,-10.500611305236816,-25.763126373291016,981.1355590820312,-0.064849853515625,-0.0534057579934597,-0.019073486328125
1711460719.3564675,-16.30036735534668,-27.167278289794922,985.4090576171875,0.02288818173110485,0.03814697265625,0.1678466647863388
1711460719.366543,-16.30036735534668,-27.167278289794922,985.4090576171875,0.02288818173110485,0.03814697265625,0.1678466647863388
1711460719.3770676,-23.809524536132812,-29.181930541992188,980.4029541015625,0.0038146970327943563,-0.0572204552590847,0.1220703050494194
1711460719.387026,-12.63736343383789,-27.41147804260254,978.3272705078125,0.148773193359375,0.0419616661965847,0.072479248046875
1711460719.3974404,-12.63736343383789,-27.41147804260254,978.3272705078125,0.148773193359375,0.0419616661965847,0.072479248046875
1711460719.4074626,-13.369963645935059,-23.68742561340332,987.72900390625,0.015258788131177425,0.133514404296875,0.072479248046875
1711460719.4179401,-13.369963645935059,-23.68742561340332,987.72900390625,0.015258788131177425,0.133514404296875,0.072479248046875
1711460719.4284365,-15.018315315246582,-23.626375198364258,988.4616088867188,0.0762939453125,-0.25177001953125,-0.148773193359375
1711460719.4378831,-15.018315315246582,-23.626375198364258,988.4616088867188,0.0762939453125,-0.25177001953125,-0.148773193359375
1711460719.448474,-6.5323567390441895,-25.763126373291016,969.7802734375,-0.03051757626235485,-0.0572204552590847,0.0457763634622097
1711460719.4583614,-6.5323567390441895,-25.763126373291016,969.7802734375,-0.03051757626235485,-0.0572204552590847,0.0457763634622097
1711460719.468991,-10.256410598754883,-33.45543670654297,983.3944091796875,-0.0915527269244194,-0.2365112155675888,-0.011444090865552425
1711460719.4790373,-10.256410598754883,-33.45543670654297,983.3944091796875,-0.0915527269244194,-0.2365112155675888,-0.011444090865552425
1711460719.4893951,-16.9719181060791,-27.4725284576416,976.1294555664062,-0.0915527269244194,-0.0839233323931694,0.03051757626235485
1711460719.4993486,-16.9719181060791,-27.4725284576416,976.1294555664062,-0.0915527269244194,-0.0839233323931694,0.03051757626235485
1711460719.510779,-12.087912559509277,-25.457876205444336,977.5946655273438,0.1983642429113388,-0.1029968187212944,-0.015258788131177425
1711460719.5206954,-18.80341911315918,-29.487180709838867,983.6386108398438,0.1182556077837944,0.019073486328125,-0.019073486328125
1711460719.5310845,-18.80341911315918,-29.487180709838867,983.6386108398438,0.1182556077837944,0.019073486328125,-0.019073486328125
1711460719.5412908,-15.201465606689453,-26.19047737121582,979.2430419921875,0.2098083347082138,-0.0915527269244194,0.0572204552590847
1711460719.552285,-17.21611785888672,-30.341882705688477,984.6154174804688,0.0534057579934597,0.1640319675207138,0.02670287899672985
1711460719.561971,-17.21611785888672,-30.341882705688477,984.6154174804688,0.0534057579934597,0.1640319675207138,0.02670287899672985
1711460719.572698,-18.131868362426758,-27.04517936706543,982.5397338867188,0.007629394065588713,-0.03814697265625,0.1182556077837944
1711460719.582894,-18.131868362426758,-27.04517936706543,982.5397338867188,0.007629394065588713,-0.03814697265625,0.1182556077837944
1711460719.593196,-15.018315315246582,-25.946277618408203,980.9524536132812,0.03051757626235485,0.0915527269244194,-0.0495910607278347
1711460719.6031015,-15.628816604614258,-28.144079208374023,983.4555053710938,0.0,0.0,0.1068115159869194
1711460719.6132092,-15.628816604614258,-28.144079208374023,983.4555053710938,0.0,0.0,0.1068115159869194
1711460719.6234365,-10.012210845947266,-27.4725284576416,980.4029541015625,0.2174377292394638,-0.1182556077837944,-0.007629394065588713
1711460719.633398,-14.652015686035156,-31.074481964111328,976.739990234375,0.0762939453125,-0.14495849609375,-0.03051757626235485
1711460719.6442564,-14.652015686035156,-31.074481964111328,976.739990234375,0.0762939453125,-0.14495849609375,-0.03051757626235485
1711460719.6538775,-15.445666313171387,-25.5189266204834,976.6178588867188,0.286102294921875,-0.011444090865552425,0.02670287899672985
1711460719.664336,-15.445666313171387,-25.5189266204834,976.6178588867188,0.286102294921875,-0.011444090865552425,0.02670287899672985
1711460719.6743536,-23.74847412109375,-25.5189266204834,981.0745239257812,-0.0419616661965847,0.0495910607278347,-0.0610351525247097
1711460719.6843796,-17.21611785888672,-23.504274368286133,980.891357421875,0.03814697265625,-0.14495849609375,0.25177001953125
1711460719.694568,-17.21611785888672,-23.504274368286133,980.891357421875,0.03814697265625,-0.14495849609375,0.25177001953125
1711460719.7048326,-16.056167602539062,-28.510379791259766,979.67041015625,0.0991821214556694,0.0991821214556694,-0.1373291015625
1711460719.7152174,-20.451770782470703,-32.29548263549805,985.4701538085938,0.1983642429113388,-0.1869201511144638,0.0419616661965847
1711460719.7252693,-20.451770782470703,-32.29548263549805,985.4701538085938,0.1983642429113388,-0.1869201511144638,0.0419616661965847
1711460719.7357395,-17.460317611694336,-24.9694766998291,982.9671020507812,0.0953674241900444,0.007629394065588713,0.0991821214556694
1711460719.7458043,-17.460317611694336,-24.9694766998291,982.9671020507812,0.0953674241900444,0.007629394065588713,0.0991821214556694
1711460719.7560704,-19.96337127685547,-23.99267578125,983.3944091796875,-0.0495910607278347,-0.011444090865552425,0.0534057579934597
1711460719.7664702,-19.96337127685547,-23.99267578125,983.3944091796875,-0.0495910607278347,-0.011444090865552425,0.0534057579934597
1711460719.776921,-18.070819854736328,-25.152626037597656,981.1355590820312,0.06866455078125,-0.06866455078125,0.14495849609375
1711460719.7870426,-18.070819854736328,-25.152626037597656,981.1355590820312,0.06866455078125,-0.06866455078125,0.14495849609375
1711460719.7970834,-15.140416145324707,-24.542125701904297,980.5250854492188,0.1831054538488388,0.034332275390625,0.03051757626235485
1711460719.8073003,-20.32967185974121,-35.77533721923828,986.9963989257812,-0.02288818173110485,0.0991821214556694,-0.0877380296587944
1711460719.8173308,-20.32967185974121,-35.77533721923828,986.9963989257812,-0.02288818173110485,0.0991821214556694,-0.0877380296587944
1711460719.8281565,-20.879121780395508,-25.091575622558594,980.2198486328125,-0.141143798828125,0.06866455078125,-0.0839233323931694
1711460719.838006,-11.050061225891113,-23.076923370361328,983.0891723632812,0.148773193359375,0.1831054538488388,0.152587890625
1711460719.8487463,-11.050061225891113,-23.076923370361328,983.0891723632812,0.148773193359375,0.1831054538488388,0.152587890625
1711460719.8591535,-17.826618194580078,-23.99267578125,975.76318359375,0.034332275390625,-0.02670287899672985,0.12969970703125
1711460719.868899,-14.590965270996094,-24.114774703979492,978.0220336914062,0.0457763634622097,-0.06866455078125,0.152587890625
1711460719.8795164,-14.590965270996094,-24.114774703979492,978.0220336914062,0.0457763634622097,-0.06866455078125,0.152587890625
1711460719.8897686,-10.561660766601562,-23.321125030517578,978.2662353515625,0.0762939453125,-0.0610351525247097,0.007629394065588713
1711460719.9000194,-10.561660766601562,-23.321125030517578,978.2662353515625,0.0762939453125,-0.0610351525247097,0.007629394065588713
1711460719.9102132,-6.410256862640381,-28.02198028564453,992.796142578125,-0.03051757626235485,-0.019073486328125,0.1182556077837944
1711460719.9200206,-17.5213680267334,-29.670331954956055,975.9463500976562,0.2174377292394638,-0.0572204552590847,0.2365112155675888
1711460719.9303005,-17.5213680267334,-29.670331954956055,975.9463500976562,0.2174377292394638,-0.0572204552590847,0.2365112155675888
1711460719.9407308,-16.178266525268555,-33.089134216308594,976.9841918945312,0.1754760593175888,0.019073486328125,0.019073486328125
1711460719.9508307,-13.980464935302734,-27.533578872680664,978.5104370117188,-0.0610351525247097,-0.1029968187212944,-0.1106262132525444
1711460719.9613538,-13.980464935302734,-27.533578872680664,978.5104370117188,-0.0610351525247097,-0.1029968187212944,-0.1106262132525444
1711460719.971197,-17.704519271850586,-26.251527786254883,984.4933471679688,0.0762939453125,-0.125885009765625,0.133514404296875
1711460719.9821095,-17.704519271850586,-26.251527786254883,984.4933471679688,0.0762939453125,-0.125885009765625,0.133514404296875
1711460719.9919107,-19.169719696044922,-28.93773078918457,983.8828125,-0.0839233323931694,-0.3547668159008026,-0.06866455078125
1711460720.0022113,-12.94261360168457,-21.489622116088867,978.2662353515625,0.064849853515625,-0.0877380296587944,-0.03814697265625
1711460720.0125766,-12.94261360168457,-21.489622116088867,978.2662353515625,0.064849853515625,-0.0877380296587944,-0.03814697265625
1711460720.0222244,-9.09645938873291,-31.13553237915039,984.0659790039062,0.14495849609375,0.255584716796875,0.1106262132525444
1711460720.0326943,-9.09645938873291,-31.13553237915039,984.0659790039062,0.14495849609375,0.255584716796875,0.1106262132525444
1711460720.0426657,-16.056167602539062,-21.794872283935547,986.0806274414062,-0.0457763634622097,-0.0801086351275444,-0.011444090865552425
1711460720.0543783,-9.89011001586914,-27.96092987060547,981.9292602539062,-0.1182556077837944,0.1640319675207138,0.1373291015625
1711460720.0629714,-9.89011001586914,-27.96092987060547,981.9292602539062,-0.1182556077837944,0.1640319675207138,0.1373291015625
1711460720.0733411,-13.308914184570312,-28.63248062133789,977.716796875,-0.02288818173110485,-0.1144409105181694,-0.1640319675207138
1711460720.0836225,-13.308914184570312,-28.63248062133789,977.716796875,-0.02288818173110485,-0.1144409105181694,-0.1640319675207138
1711460720.0940347,-16.666667938232422,-34.004886627197266,983.3944091796875,0.03051757626235485,-0.2326965183019638,-0.06866455078125
1711460720.103894,-16.666667938232422,-34.004886627197266,983.3944091796875,0.03051757626235485,-0.2326965183019638,-0.06866455078125
1711460720.1139326,-6.837607383728027,-35.470088958740234,981.6239624023438,-0.1869201511144638,-0.0038146970327943563,0.0762939453125
1711460720.1244779,-6.837607383728027,-35.470088958740234,981.6239624023438,-0.1869201511144638,-0.0038146970327943563,0.0762939453125
1711460720.1345928,-11.721611976623535,-27.04517936706543,986.2637939453125,0.0419616661965847,-0.0419616661965847,-0.0877380296587944
1711460720.1452303,-11.721611976623535,-27.04517936706543,986.2637939453125,0.0419616661965847,-0.0419616661965847,-0.0877380296587944
1711460720.1547856,-13.24786376953125,-28.38827896118164,992.1856689453125,-0.02670287899672985,0.0801086351275444,0.141143798828125
1711460720.1653264,-15.140416145324707,-21.794872283935547,976.0684204101562,0.0610351525247097,0.1983642429113388,0.3547668159008026
1711460720.1754856,-15.140416145324707,-21.794872283935547,976.0684204101562,0.0610351525247097,0.1983642429113388,0.3547668159008026
1711460720.186084,-4.761905193328857,-27.96092987060547,969.5360717773438,0.0877380296587944,0.0762939453125,-0.0839233323931694
1711460720.1958723,-4.761905193328857,-27.96092987060547,969.5360717773438,0.0877380296587944,0.0762939453125,-0.0839233323931694
1711460720.2060688,-13.614164352416992,-24.90842628479004,971.73388671875,-0.1029968187212944,0.0495910607278347,0.1716613620519638
1711460720.2163694,-13.614164352416992,-24.90842628479004,971.73388671875,-0.1029968187212944,0.0495910607278347,0.1716613620519638
1711460720.2263756,-13.369963645935059,-24.29792594909668,983.1502075195312,-0.011444090865552425,0.1754760593175888,0.2059936374425888
1711460720.2369509,-16.178266525268555,-19.902320861816406,986.9963989257812,-0.0038146970327943563,0.12969970703125,0.3433227241039276
1711460720.2467413,-16.178266525268555,-19.902320861816406,986.9963989257812,-0.0038146970327943563,0.12969970703125,0.3433227241039276
1711460720.2571642,-19.35287094116211,-29.85348129272461,993.9561157226562,0.015258788131177425,-0.0572204552590847,0.1983642429113388
1711460720.2677026,-19.35287094116211,-29.85348129272461,993.9561157226562,0.015258788131177425,-0.0572204552590847,0.1983642429113388
1711460720.2777188,-14.835165977478027,-24.72527503967285,982.722900390625,-0.2021789401769638,0.011444090865552425,-0.06866455078125
1711460720.2881117,-18.009769439697266,-35.897438049316406,1000.3052978515625,0.03051757626235485,0.1373291015625,0.0038146970327943563
1711460720.29785,-18.009769439697266,-35.897438049316406,1000.3052978515625,0.03051757626235485,0.1373291015625,0.0038146970327943563
1711460720.3083014,-17.643468856811523,-14.224664688110352,970.1465454101562,-0.1068115159869194,0.2326965183019638,-0.0610351525247097
1711460720.318255,-17.643468856811523,-14.224664688110352,970.1465454101562,-0.1068115159869194,0.2326965183019638,-0.0610351525247097
1711460720.3288944,-17.27716827392578,-32.17338562011719,973.9927368164062,0.019073486328125,-0.034332275390625,-0.03814697265625
1711460720.3386624,-17.27716827392578,-32.17338562011719,973.9927368164062,0.019073486328125,-0.034332275390625,-0.03814697265625
1711460720.3494601,-13.675214767456055,-26.678878784179688,976.5568237304688,-0.019073486328125,-0.125885009765625,0.0534057579934597
1711460720.3593802,-16.788766860961914,-8.60805892944336,974.4200439453125,0.072479248046875,0.2250671237707138,0.0534057579934597
1711460720.3702042,-16.788766860961914,-8.60805892944336,974.4200439453125,0.072479248046875,0.2250671237707138,0.0534057579934597
1711460720.3801937,-11.416361808776855,-19.35287094116211,971.85595703125,0.015258788131177425,0.0839233323931694,0.1983642429113388
1711460720.3906531,-11.416361808776855,-19.35287094116211,971.85595703125,0.015258788131177425,0.0839233323931694,0.1983642429113388
1711460720.400907,-19.902320861816406,-25.824176788330078,955.4945678710938,-0.0953674241900444,-0.0762939453125,0.25177001953125
1711460720.4114578,-19.902320861816406,-25.824176788330078,955.4945678710938,-0.0953674241900444,-0.0762939453125,0.25177001953125
1711460720.4210746,-15.201465606689453,-27.71672821044922,985.5922241210938,0.0610351525247097,-0.03814697265625,0.152587890625
1711460720.4312594,-15.201465606689453,-27.71672821044922,985.5922241210938,0.0610351525247097,-0.03814697265625,0.152587890625
1711460720.4416926,-20.512821197509766,-32.478633880615234,986.813232421875,0.1144409105181694,0.064849853515625,-0.0839233323931694
1711460720.4516542,-23.44322395324707,-21.794872283935547,986.2027587890625,-0.019073486328125,-0.1640319675207138,-0.0915527269244194
1711460720.462384,-23.44322395324707,-21.794872283935547,986.2027587890625,-0.019073486328125,-0.1640319675207138,-0.0915527269244194
1711460720.472453,-16.422468185424805,-27.289379119873047,984.4323120117188,0.125885009765625,0.0991821214556694,0.011444090865552425
1711460720.4828997,-16.422468185424805,-27.289379119873047,984.4323120117188,0.125885009765625,0.0991821214556694,0.011444090865552425
1711460720.4928024,-16.422468185424805,-29.059829711914062,976.739990234375,0.1182556077837944,0.007629394065588713,-0.0915527269244194
1711460720.503393,-17.399269104003906,-34.55433654785156,972.2222900390625,0.0991821214556694,-0.156402587890625,0.1983642429113388
1711460720.5134816,-17.399269104003906,-34.55433654785156,972.2222900390625,0.0991821214556694,-0.156402587890625,0.1983642429113388
1711460720.5236175,-11.538461685180664,-24.175825119018555,978.2662353515625,0.06866455078125,-0.156402587890625,0.0839233323931694
1711460720.534048,-11.538461685180664,-24.175825119018555,978.2662353515625,0.06866455078125,-0.156402587890625,0.0839233323931694
1711460720.543888,-23.321125030517578,-31.13553237915039,979.67041015625,0.1182556077837944,-0.1869201511144638,0.14495849609375
1711460720.5544312,-23.321125030517578,-31.13553237915039,979.67041015625,0.1182556077837944,-0.1869201511144638,0.14495849609375
1711460720.5643675,-9.157509803771973,-22.283273696899414,977.2894287109375,-0.0419616661965847,-0.011444090865552425,0.152587890625
1711460720.575,-15.201465606689453,-26.312578201293945,976.4957885742188,0.1182556077837944,-0.02670287899672985,0.1678466647863388
1711460720.5850916,-15.201465606689453,-26.312578201293945,976.4957885742188,0.1182556077837944,-0.02670287899672985,0.1678466647863388
1711460720.5956244,-16.422468185424805,-34.615386962890625,988.5836791992188,0.03814697265625,0.0839233323931694,0.0877380296587944
1711460720.6059227,-5.433455944061279,-26.068376541137695,986.813232421875,-0.133514404296875,0.125885009765625,0.03814697265625
1711460720.6162472,-5.433455944061279,-26.068376541137695,986.813232421875,-0.133514404296875,0.125885009765625,0.03814697265625
1711460720.6265037,-8.60805892944336,-26.617828369140625,989.6826171875,-0.0991821214556694,-0.019073486328125,0.14495849609375
1711460720.6370575,-8.60805892944336,-26.617828369140625,989.6826171875,-0.0991821214556694,-0.019073486328125,0.14495849609375
1711460720.6471245,-14.224664688110352,-23.199024200439453,981.6239624023438,0.0801086351275444,0.007629394065588713,0.011444090865552425
1711460720.657256,-14.224664688110352,-23.199024200439453,981.6239624023438,0.0801086351275444,0.007629394065588713,0.011444090865552425
1711460720.668108,-8.241758346557617,-26.373628616333008,986.5690307617188,-0.011444090865552425,0.152587890625,0.2212524265050888
1711460720.6778371,-16.544567108154297,-21.85592269897461,979.67041015625,-0.1182556077837944,0.0762939453125,-0.007629394065588713
1711460720.6884575,-16.544567108154297,-21.85592269897461,979.67041015625,-0.1182556077837944,0.0762939453125,-0.007629394065588713
1711460720.698479,-16.361417770385742,-26.80097770690918,983.7607421875,-0.0572204552590847,-0.011444090865552425,0.1678466647863388
1711460720.7091343,-18.80341911315918,-29.85348129272461,976.3736572265625,0.06866455078125,0.2479553073644638,0.0610351525247097
1711460720.719749,-18.80341911315918,-29.85348129272461,976.3736572265625,0.06866455078125,0.2479553073644638,0.0610351525247097
1711460720.7301888,-18.80341911315918,-29.85348129272461,976.3736572265625,0.06866455078125,0.2479553073644638,0.0610351525247097
1711460720.7405581,-13.675214767456055,-30.52503204345703,984.6154174804688,-0.02288818173110485,-0.0038146970327943563,0.1106262132525444
1711460720.751106,-13.675214767456055,-30.52503204345703,984.6154174804688,-0.02288818173110485,-0.0038146970327943563,0.1106262132525444
1711460720.7611732,-12.271062850952148,-17.27716827392578,988.4005126953125,-0.1754760593175888,-0.072479248046875,0.02670287899672985
1711460720.7716897,-12.271062850952148,-17.27716827392578,988.4005126953125,-0.1754760593175888,-0.072479248046875,0.02670287899672985
1711460720.7817311,-16.91086769104004,-26.739927291870117,982.4786987304688,-0.1220703050494194,0.156402587890625,0.26702880859375
1711460720.7917082,-16.91086769104004,-26.739927291870117,982.4786987304688,-0.1220703050494194,0.156402587890625,0.26702880859375
1711460720.802078,-19.536020278930664,-23.99267578125,981.1966552734375,0.133514404296875,0.064849853515625,-0.0762939453125
1711460720.8122983,-19.536020278930664,-23.99267578125,981.1966552734375,0.133514404296875,0.064849853515625,-0.0762939453125
1711460720.8225622,-17.155067443847656,-26.4957275390625,986.752197265625,0.015258788131177425,-0.0953674241900444,0.072479248046875
1711460720.8323822,-16.117216110229492,-24.90842628479004,975.76318359375,-0.02288818173110485,-0.015258788131177425,0.156402587890625
1711460720.8427567,-16.117216110229492,-24.90842628479004,975.76318359375,-0.02288818173110485,-0.015258788131177425,0.156402587890625
1711460720.852872,-15.201465606689453,-29.365081787109375,978.3272705078125,0.03814697265625,0.0419616661965847,0.0801086351275444
1711460720.8631966,-15.201465606689453,-29.365081787109375,978.3272705078125,0.03814697265625,0.0419616661965847,0.0801086351275444
1711460720.8731232,-12.45421314239502,-27.167278289794922,973.3211669921875,-0.1907348483800888,0.1640319675207138,0.1640319675207138
1711460720.883401,-21.062273025512695,-31.74603271484375,979.79248046875,0.125885009765625,0.0953674241900444,0.0762939453125
1711460720.894979,-21.062273025512695,-31.74603271484375,979.79248046875,0.125885009765625,0.0953674241900444,0.0762939453125
1711460720.9051995,-16.9719181060791,-34.12698745727539,982.3565673828125,0.1373291015625,-0.1945495456457138,-0.015258788131177425
1711460720.9152665,-13.24786376953125,-30.708181381225586,979.853515625,-0.0495910607278347,-0.1182556077837944,0.0915527269244194
1711460720.9258025,-13.24786376953125,-30.708181381225586,979.853515625,-0.0495910607278347,-0.1182556077837944,0.0915527269244194
1711460720.935715,-15.628816604614258,-17.155067443847656,984.9817504882812,0.0610351525247097,-0.0457763634622097,0.0839233323931694
1711460720.9461746,-15.628816604614258,-17.155067443847656,984.9817504882812,0.0610351525247097,-0.0457763634622097,0.0839233323931694
1711460720.9561296,-8.30280876159668,-28.571430206298828,977.4114990234375,0.02670287899672985,0.1983642429113388,0.1945495456457138
1711460720.9667609,-8.30280876159668,-28.571430206298828,977.4114990234375,0.02670287899672985,0.1983642429113388,0.1945495456457138
1711460720.9769952,-21.001222610473633,-17.643468856811523,992.4909057617188,0.0915527269244194,0.1831054538488388,-0.02670287899672985
1711460720.9870143,-20.94017219543457,-24.114774703979492,977.5946655273438,-0.0877380296587944,0.125885009765625,-0.034332275390625
1711460720.9970865,-20.94017219543457,-24.114774703979492,977.5946655273438,-0.0877380296587944,0.125885009765625,-0.034332275390625
1711460721.0073588,-14.468865394592285,-20.26862144470215,976.678955078125,0.0038146970327943563,0.0572204552590847,0.2441406100988388
1711460721.017789,-14.468865394592285,-20.26862144470215,976.678955078125,0.0038146970327943563,0.0572204552590847,0.2441406100988388
1711460721.027773,-14.346765518188477,-25.702077865600586,984.3712158203125,-0.1029968187212944,-0.1106262132525444,0.0839233323931694
1711460721.0380955,-14.346765518188477,-25.702077865600586,984.3712158203125,-0.1029968187212944,-0.1106262132525444,0.0839233323931694
1711460721.0482914,-4.395604610443115,-26.434677124023438,983.0281372070312,-0.034332275390625,-0.0419616661965847,0.0495910607278347
1711460721.0599833,-10.073260307312012,-30.83028221130371,975.1526489257812,-0.0534057579934597,0.0762939453125,0.0495910607278347
1711460721.0687857,-10.073260307312012,-30.83028221130371,975.1526489257812,-0.0534057579934597,0.0762939453125,0.0495910607278347
1711460721.0793593,-21.428571701049805,-30.280832290649414,980.9524536132812,0.06866455078125,0.1106262132525444,0.0495910607278347
1711460721.0892155,-21.428571701049805,-30.280832290649414,980.9524536132812,0.06866455078125,0.1106262132525444,0.0495910607278347
1711460721.0994499,-15.628816604614258,-37.91209030151367,992.3687744140625,-0.0762939453125,0.06866455078125,0.1716613620519638
1711460721.1098044,-15.628816604614258,-37.91209030151367,992.3687744140625,-0.0762939453125,0.06866455078125,0.1716613620519638
1711460721.1198409,-19.230770111083984,-34.06593704223633,972.710693359375,0.019073486328125,0.2098083347082138,-0.0991821214556694
1711460721.1302466,-19.230770111083984,-34.06593704223633,972.710693359375,0.019073486328125,0.2098083347082138,-0.0991821214556694
1711460721.1402044,-24.786325454711914,-27.289379119873047,979.0598754882812,0.2174377292394638,0.007629394065588713,0.1907348483800888
1711460721.1506724,-24.786325454711914,-27.289379119873047,979.0598754882812,0.2174377292394638,0.007629394065588713,0.1907348483800888
1711460721.160794,-22.83272361755371,-21.428571701049805,978.3883056640625,0.125885009765625,-0.141143798828125,-0.02670287899672985
1711460721.1713808,-22.83272361755371,-21.428571701049805,978.3883056640625,0.125885009765625,-0.141143798828125,-0.02670287899672985
1711460721.1813786,-21.611722946166992,-18.376070022583008,974.4200439453125,0.0534057579934597,-0.007629394065588713,0.0915527269244194
1711460721.1914535,-21.611722946166992,-18.376070022583008,974.4200439453125,0.0534057579934597,-0.007629394065588713,0.0915527269244194
1711460721.202416,-17.460317611694336,-17.338218688964844,981.68505859375,0.072479248046875,0.0,0.0419616661965847
1711460721.2121146,-15.384615898132324,-22.100122451782227,982.906005859375,0.14495849609375,-0.152587890625,-0.015258788131177425
1711460721.2226276,-15.384615898132324,-22.100122451782227,982.906005859375,0.14495849609375,-0.152587890625,-0.015258788131177425
1711460721.232681,-6.776556968688965,-21.611722946166992,981.1966552734375,-0.12969970703125,-0.034332275390625,-0.0839233323931694
1711460721.24326,-6.776556968688965,-21.611722946166992,981.1966552734375,-0.12969970703125,-0.034332275390625,-0.0839233323931694
1711460721.2531402,-6.776556968688965,-28.02198028564453,979.1820068359375,-0.1640319675207138,-0.0610351525247097,-0.0762939453125
1711460721.2633305,-6.776556968688965,-28.02198028564453,979.1820068359375,-0.1640319675207138,-0.0610351525247097,-0.0762939453125
1711460721.2738066,-8.547008514404297,-28.08302879333496,980.2198486328125,-0.0457763634622097,0.2250671237707138,0.1373291015625
1711460721.2840924,-8.547008514404297,-28.08302879333496,980.2198486328125,-0.0457763634622097,0.2250671237707138,0.1373291015625
1711460721.2939332,-18.253969192504883,-29.54823112487793,971.5507202148438,0.14495849609375,0.2288818210363388,0.007629394065588713
1711460721.303836,-18.253969192504883,-29.54823112487793,971.5507202148438,0.14495849609375,0.2288818210363388,0.007629394065588713
1711460721.3143668,-23.199024200439453,-29.487180709838867,964.1026000976562,0.152587890625,-0.02670287899672985,0.0419616661965847
1711460721.3240519,-23.199024200439453,-29.487180709838867,964.1026000976562,0.152587890625,-0.02670287899672985,0.0419616661965847
1711460721.3347027,-21.489622116088867,-26.80097770690918,982.906005859375,-0.14495849609375,-0.015258788131177425,0.0572204552590847
1711460721.344787,-27.533578872680664,-26.251527786254883,986.2027587890625,0.1068115159869194,-0.2174377292394638,-0.02670287899672985
1711460721.3550727,-27.533578872680664,-26.251527786254883,986.2027587890625,0.1068115159869194,-0.2174377292394638,-0.02670287899672985
1711460721.3654578,-24.786325454711914,-19.536020278930664,987.72900390625,0.06866455078125,-0.019073486328125,-0.072479248046875
1711460721.3756776,-24.786325454711914,-19.536020278930664,987.72900390625,0.06866455078125,-0.019073486328125,-0.072479248046875
1711460721.3856242,-22.405372619628906,-23.260074615478516,975.7021484375,-0.015258788131177425,-0.007629394065588713,0.0572204552590847
1711460721.395699,-22.405372619628906,-23.260074615478516,975.7021484375,-0.015258788131177425,-0.007629394065588713,0.0572204552590847
1711460721.4060063,-7.814408302307129,-24.175825119018555,986.2637939453125,0.015258788131177425,-0.1182556077837944,0.2479553073644638
1711460721.4161706,-7.814408302307129,-24.175825119018555,986.2637939453125,0.015258788131177425,-0.1182556077837944,0.2479553073644638
1711460721.4265084,-15.689866065979004,-17.88766860961914,982.4176025390625,-0.0572204552590847,0.0762939453125,0.034332275390625
1711460721.4366,-15.689866065979004,-17.88766860961914,982.4176025390625,-0.0572204552590847,0.0762939453125,0.034332275390625
1711460721.4469597,-9.645910263061523,-23.0158748626709,981.4408569335938,0.0534057579934597,0.156402587890625,0.011444090865552425
1711460721.457355,-7.264957427978516,-26.4957275390625,975.9463500976562,-0.2365112155675888,-0.0572204552590847,-0.011444090865552425
1711460721.4677246,-7.264957427978516,-26.4957275390625,975.9463500976562,-0.2365112155675888,-0.0572204552590847,-0.011444090865552425
1711460721.477996,-17.58241844177246,-27.4725284576416,984.0659790039062,-0.14495849609375,0.12969970703125,0.1792907565832138
1711460721.487918,-17.58241844177246,-27.4725284576416,984.0659790039062,-0.14495849609375,0.12969970703125,0.1792907565832138
1711460721.4981277,-23.870574951171875,-26.007328033447266,993.5897827148438,0.0610351525247097,0.0610351525247097,0.1182556077837944
1711460721.5082238,-15.445666313171387,-27.4725284576416,980.830322265625,0.156402587890625,-0.03814697265625,0.02670287899672985
1711460721.5185843,-15.445666313171387,-27.4725284576416,980.830322265625,0.156402587890625,-0.03814697265625,0.02670287899672985
1711460721.5286403,-20.390722274780273,-32.96703338623047,984.737548828125,0.011444090865552425,0.015258788131177425,0.1029968187212944
1711460721.5391967,-20.390722274780273,-32.96703338623047,984.737548828125,0.011444090865552425,0.015258788131177425,0.1029968187212944
1711460721.5491924,-15.445666313171387,-34.004886627197266,988.0342407226562,0.0877380296587944,0.1792907565832138,-0.0839233323931694
1711460721.5595932,-16.239316940307617,-19.291820526123047,977.5946655273438,0.2403259128332138,0.03051757626235485,0.0915527269244194
1711460721.5700169,-16.239316940307617,-19.291820526123047,977.5946655273438,0.2403259128332138,0.03051757626235485,0.0915527269244194
1711460721.580231,-21.489622116088867,-20.63492202758789,978.0830688476562,0.072479248046875,-0.0457763634622097,0.0038146970327943563
1711460721.5901508,-21.489622116088867,-20.63492202758789,978.0830688476562,0.072479248046875,-0.0457763634622097,0.0038146970327943563
1711460721.6009972,-13.186814308166504,-25.5189266204834,978.3272705078125,-0.0419616661965847,-0.1029968187212944,0.06866455078125
1711460721.6111221,-20.390722274780273,-29.365081787109375,986.9353637695312,0.1792907565832138,-0.1029968187212944,0.02288818173110485
1711460721.6212146,-20.390722274780273,-29.365081787109375,986.9353637695312,0.1792907565832138,-0.1029968187212944,0.02288818173110485
1711460721.631455,-12.63736343383789,-24.542125701904297,981.68505859375,0.1182556077837944,-0.06866455078125,0.0572204552590847
1711460721.6418252,-4.395604610443115,-23.0158748626709,980.4029541015625,0.2212524265050888,-0.011444090865552425,0.141143798828125
1711460721.6520572,-4.395604610443115,-23.0158748626709,980.4029541015625,0.2212524265050888,-0.011444090865552425,0.141143798828125
1711460721.6622508,-3.479853630065918,-26.373628616333008,976.1905517578125,0.1983642429113388,-0.0572204552590847,-0.015258788131177425
1711460721.6724815,-3.479853630065918,-26.373628616333008,976.1905517578125,0.1983642429113388,-0.0572204552590847,-0.015258788131177425
1711460721.6827445,-22.954824447631836,-25.457876205444336,980.1587524414062,-0.0495910607278347,0.0953674241900444,-0.1068115159869194
1711460721.6929479,-27.289379119873047,-30.341882705688477,979.2430419921875,0.072479248046875,0.011444090865552425,-0.1716613620519638
1711460721.7031903,-27.289379119873047,-30.341882705688477,979.2430419921875,0.072479248046875,0.011444090865552425,-0.1716613620519638
1711460721.713171,-21.367523193359375,-30.952383041381836,985.5311889648438,-0.06866455078125,-0.034332275390625,0.02288818173110485
1711460721.723481,-21.367523193359375,-30.952383041381836,985.5311889648438,-0.06866455078125,-0.034332275390625,0.02288818173110485
1711460721.733574,-21.367523193359375,-30.952383041381836,985.5311889648438,-0.06866455078125,-0.034332275390625,0.02288818173110485
1711460721.74386,-17.27716827392578,-25.763126373291016,978.2662353515625,0.0457763634622097,0.06866455078125,0.0419616661965847
1711460721.7539387,-25.335777282714844,-19.4749698638916,983.7607421875,0.015258788131177425,0.06866455078125,0.1602172702550888
1711460721.7642527,-25.335777282714844,-19.4749698638916,983.7607421875,0.015258788131177425,0.06866455078125,0.1602172702550888
1711460721.7745886,-11.782662391662598,-25.57997703552246,976.678955078125,-0.156402587890625,-0.06866455078125,0.0038146970327943563
1711460721.7927122,-7.814408302307129,-29.365081787109375,981.80712890625,-0.0991821214556694,0.0915527269244194,0.072479248046875
1711460721.8026633,-7.814408302307129,-29.365081787109375,981.80712890625,-0.0991821214556694,0.0915527269244194,0.072479248046875
1711460721.8129694,-13.369963645935059,-21.001222610473633,980.2808837890625,-0.1220703050494194,-0.0457763634622097,-0.072479248046875
1711460721.8234298,-13.369963645935059,-21.001222610473633,980.2808837890625,-0.1220703050494194,-0.0457763634622097,-0.072479248046875
1711460721.8333406,-8.60805892944336,-26.434677124023438,984.9817504882812,-0.011444090865552425,0.019073486328125,0.0610351525247097
1711460721.8438184,-8.60805892944336,-26.434677124023438,984.9817504882812,-0.011444090865552425,0.019073486328125,0.0610351525247097
1711460721.8536947,-13.064713478088379,-33.333335876464844,982.0513305664062,-0.011444090865552425,0.0877380296587944,-0.0457763634622097
1711460721.8642087,-18.864469528198242,-26.007328033447266,985.71435546875,-0.12969970703125,-0.0457763634622097,0.0038146970327943563
1711460721.874332,-18.864469528198242,-26.007328033447266,985.71435546875,-0.12969970703125,-0.0457763634622097,0.0038146970327943563
1711460721.8848016,-10.866911888122559,-24.420024871826172,978.5714721679688,0.02288818173110485,0.1068115159869194,0.0572204552590847
1711460721.89496,-10.866911888122559,-24.420024871826172,978.5714721679688,0.02288818173110485,0.1068115159869194,0.0572204552590847
1711460721.9051764,-15.567766189575195,-27.65567970275879,981.3187255859375,-0.3433227241039276,0.0877380296587944,0.034332275390625
1711460721.9153268,-15.567766189575195,-27.65567970275879,981.3187255859375,-0.3433227241039276,0.0877380296587944,0.034332275390625
1711460721.9254413,-13.369963645935059,-29.426130294799805,977.8388671875,0.148773193359375,0.0801086351275444,0.1106262132525444
1711460721.9356065,-13.369963645935059,-29.426130294799805,977.8388671875,0.148773193359375,0.0801086351275444,0.1106262132525444
1711460721.945798,-22.344324111938477,-28.998781204223633,983.4555053710938,0.02288818173110485,-0.0877380296587944,0.141143798828125
1711460721.956119,-20.26862144470215,-22.954824447631836,980.891357421875,-0.25177001953125,-0.2250671237707138,-0.152587890625
1711460721.966417,-20.26862144470215,-22.954824447631836,980.891357421875,-0.25177001953125,-0.2250671237707138,-0.152587890625
1711460721.97682,-13.064713478088379,-34.06593704223633,982.844970703125,0.1945495456457138,-0.1945495456457138,0.03814697265625
1711460721.9866803,-13.064713478088379,-34.06593704223633,982.844970703125,0.1945495456457138,-0.1945495456457138,0.03814697265625
1711460721.9968622,-16.056167602539062,-30.15873146057129,983.1502075195312,0.019073486328125,0.1831054538488388,0.02670287899672985
1711460722.0072093,-16.056167602539062,-30.15873146057129,983.1502075195312,0.019073486328125,0.1831054538488388,0.02670287899672985
1711460722.0174148,-9.340660095214844,-32.112335205078125,982.4786987304688,0.03051757626235485,0.0038146970327943563,0.1029968187212944
1711460722.0278766,-9.340660095214844,-32.112335205078125,982.4786987304688,0.03051757626235485,0.0038146970327943563,0.1029968187212944
1711460722.0378118,-12.698412895202637,-25.396825790405273,981.4408569335938,0.0953674241900444,-0.12969970703125,0.1716613620519638
1711460722.0480542,-12.698412895202637,-25.396825790405273,981.4408569335938,0.0953674241900444,-0.12969970703125,0.1716613620519638
1711460722.0584333,-12.698412895202637,-25.396825790405273,981.4408569335938,0.0953674241900444,-0.12969970703125,0.1716613620519638
1711460722.0685863,-11.294261932373047,-20.573871612548828,980.2198486328125,-0.1144409105181694,0.1068115159869194,0.2174377292394638
1711460722.0787811,-11.294261932373047,-20.573871612548828,980.2198486328125,-0.1144409105181694,0.1068115159869194,0.2174377292394638
1711460722.088826,-7.326007843017578,-22.52747344970703,981.8681640625,0.007629394065588713,-0.02670287899672985,0.1678466647863388
1711460722.0989592,-11.782662391662598,-27.65567970275879,973.0159301757812,0.007629394065588713,0.2059936374425888,-0.0457763634622097
1711460722.1091344,-11.782662391662598,-27.65567970275879,973.0159301757812,0.007629394065588713,0.2059936374425888,-0.0457763634622097
1711460722.1194694,-10.989011764526367,-20.94017219543457,976.2515869140625,-0.02288818173110485,-0.14495849609375,0.0801086351275444
1711460722.1296709,-10.989011764526367,-20.94017219543457,976.2515869140625,-0.02288818173110485,-0.14495849609375,0.0801086351275444
1711460722.140026,-14.590965270996094,-29.365081787109375,975.82421875,0.019073486328125,0.1640319675207138,0.0
1711460722.1503656,-22.83272361755371,-28.449329376220703,979.9756469726562,-0.1144409105181694,0.1640319675207138,0.1068115159869194
1711460722.1605685,-22.83272361755371,-28.449329376220703,979.9756469726562,-0.1144409105181694,0.1640319675207138,0.1068115159869194
1711460722.1705952,-17.032968521118164,-30.52503204345703,979.4872436523438,-0.0953674241900444,0.0572204552590847,0.156402587890625
1711460722.1806216,-17.032968521118164,-30.52503204345703,979.4872436523438,-0.0953674241900444,0.0572204552590847,0.156402587890625
1711460722.191042,-18.070819854736328,-30.952383041381836,973.5653686523438,0.133514404296875,-0.152587890625,0.0915527269244194
1711460722.2012053,-18.070819854736328,-30.952383041381836,973.5653686523438,0.133514404296875,-0.152587890625,0.0915527269244194
1711460722.2116756,-14.896215438842773,-21.062273025512695,977.89990234375,0.148773193359375,-0.125885009765625,-0.0915527269244194
1711460722.221688,-17.765567779541016,-26.19047737121582,981.1355590820312,0.0991821214556694,-0.0762939453125,0.0991821214556694
1711460722.2319887,-17.765567779541016,-26.19047737121582,981.1355590820312,0.0991821214556694,-0.0762939453125,0.0991821214556694
1711460722.2420912,-18.376070022583008,-31.13553237915039,976.0684204101562,0.1373291015625,-0.14495849609375,0.0457763634622097
1711460722.2525234,-18.376070022583008,-31.13553237915039,976.0684204101562,0.1373291015625,-0.14495849609375,0.0457763634622097
1711460722.2625978,-18.925519943237305,-21.184371948242188,985.1038208007812,-0.011444090865552425,0.011444090865552425,-0.007629394065588713
1711460722.2731366,-14.407814979553223,-25.335777282714844,979.6093139648438,-0.1068115159869194,0.02670287899672985,0.0610351525247097
1711460722.282951,-14.407814979553223,-25.335777282714844,979.6093139648438,-0.1068115159869194,0.02670287899672985,0.0610351525247097
1711460722.2930946,-7.753358364105225,-17.58241844177246,984.5543823242188,0.015258788131177425,-0.0762939453125,0.034332275390625
1711460722.3037522,-7.753358364105225,-17.58241844177246,984.5543823242188,0.015258788131177425,-0.0762939453125,0.034332275390625
1711460722.3137488,-6.288156509399414,-22.52747344970703,978.6325073242188,0.0915527269244194,-0.007629394065588713,0.0
1711460722.3241067,-6.288156509399414,-22.52747344970703,978.6325073242188,0.0915527269244194,-0.007629394065588713,0.0
1711460722.334079,-12.576313018798828,-27.289379119873047,974.4811401367188,0.1640319675207138,-0.0419616661965847,0.0457763634622097
1711460722.3444793,-17.5213680267334,-35.0427360534668,984.676513671875,0.015258788131177425,-0.0762939453125,0.0915527269244194
1711460722.354716,-17.5213680267334,-35.0427360534668,984.676513671875,0.015258788131177425,-0.0762939453125,0.0915527269244194
1711460722.3651006,-16.727718353271484,-28.93773078918457,979.0598754882812,0.0915527269244194,-0.1106262132525444,0.064849853515625
1711460722.3754153,-16.727718353271484,-28.93773078918457,979.0598754882812,0.0915527269244194,-0.1106262132525444,0.064849853515625
1711460722.3852715,-12.94261360168457,-36.996337890625,979.6093139648438,0.02670287899672985,0.011444090865552425,0.2326965183019638
1711460722.3955226,-12.94261360168457,-36.996337890625,979.6093139648438,0.02670287899672985,0.011444090865552425,0.2326965183019638
1711460722.405889,-14.102564811706543,-30.036630630493164,985.4701538085938,0.0991821214556694,-0.0038146970327943563,0.0495910607278347
1711460722.4161448,-14.102564811706543,-30.036630630493164,985.4701538085938,0.0991821214556694,-0.0038146970327943563,0.0495910607278347
1711460722.4262338,-18.376070022583008,-22.649574279785156,981.5629272460938,0.1907348483800888,-0.2288818210363388,0.148773193359375
1711460722.4364948,-18.376070022583008,-22.649574279785156,981.5629272460938,0.1907348483800888,-0.2288818210363388,0.148773193359375
1711460722.4469087,-21.794872283935547,-31.501832962036133,987.4237670898438,-0.0953674241900444,-0.2136230319738388,0.125885009765625
1711460722.4573712,-13.614164352416992,-44.20024490356445,990.781494140625,0.3280639350414276,-0.02670287899672985,0.2021789401769638
1711460722.4675088,-13.614164352416992,-44.20024490356445,990.781494140625,0.3280639350414276,-0.02670287899672985,0.2021789401769638
1711460722.4772673,-8.424908638000488,-8.30280876159668,966.4835815429688,-0.02670287899672985,-0.015258788131177425,-0.29754638671875
1711460722.4875927,-8.424908638000488,-8.30280876159668,966.4835815429688,-0.02670287899672985,-0.015258788131177425,-0.29754638671875
1711460722.4976263,-12.7594633102417,-27.96092987060547,989.1331176757812,0.0457763634622097,-0.06866455078125,0.1754760593175888
1711460722.5079117,-10.317461013793945,-30.341882705688477,987.7900390625,0.1983642429113388,-0.2326965183019638,0.06866455078125
1711460722.517969,-10.317461013793945,-30.341882705688477,987.7900390625,0.1983642429113388,-0.2326965183019638,0.06866455078125
1711460722.5281932,-0.24420025944709778,-24.847375869750977,984.6154174804688,0.0038146970327943563,-0.0457763634622097,0.14495849609375
1711460722.5386117,-0.24420025944709778,-24.847375869750977,984.6154174804688,0.0038146970327943563,-0.0457763634622097,0.14495849609375
1711460722.5488298,-17.032968521118164,-28.32723045349121,982.6618041992188,-0.0534057579934597,-0.0419616661965847,0.007629394065588713
1711460722.5587902,-16.483516693115234,-23.38217544555664,985.1038208007812,0.019073486328125,0.156402587890625,0.1106262132525444
1711460722.5688615,-16.483516693115234,-23.38217544555664,985.1038208007812,0.019073486328125,0.156402587890625,0.1106262132525444
1711460722.5791564,-6.105006217956543,-29.975582122802734,991.9414672851562,-0.03051757626235485,0.1182556077837944,0.2441406100988388
1711460722.5891638,-6.105006217956543,-29.975582122802734,991.9414672851562,-0.03051757626235485,0.1182556077837944,0.2441406100988388
1711460722.5997868,-10.134310722351074,-30.586082458496094,977.9609985351562,0.3776549994945526,0.0839233323931694,0.0610351525247097
1711460722.6096973,-10.134310722351074,-30.586082458496094,977.9609985351562,0.3776549994945526,0.0839233323931694,0.0610351525247097
1711460722.6200817,-20.451770782470703,-25.396825790405273,978.5714721679688,0.0877380296587944,0.1678466647863388,0.011444090865552425
1711460722.6303372,-13.675214767456055,-30.15873146057129,974.3590087890625,0.2365112155675888,0.28228759765625,-0.06866455078125
1711460722.640884,-13.675214767456055,-30.15873146057129,974.3590087890625,0.2365112155675888,0.28228759765625,-0.06866455078125
1711460722.6510634,-11.233211517333984,-23.809524536132812,981.6239624023438,0.06866455078125,0.0572204552590847,0.1754760593175888
1711460722.6613262,-18.864469528198242,-20.512821197509766,974.6642456054688,0.141143798828125,-0.1106262132525444,0.1602172702550888
1711460722.671529,-18.864469528198242,-20.512821197509766,974.6642456054688,0.141143798828125,-0.1106262132525444,0.1602172702550888
1711460722.6814706,-13.7362642288208,-18.864469528198242,987.9732055664062,0.0534057579934597,0.0610351525247097,0.1640319675207138
1711460722.691805,-9.523810386657715,-21.24542236328125,980.2198486328125,-0.0038146970327943563,0.1754760593175888,0.02670287899672985
1711460722.7017503,-9.523810386657715,-21.24542236328125,980.2198486328125,-0.0038146970327943563,0.1754760593175888,0.02670287899672985
1711460722.7120087,-17.704519271850586,-21.428571701049805,975.4579467773438,-0.019073486328125,0.2212524265050888,0.25177001953125
1711460722.7223547,-17.704519271850586,-21.428571701049805,975.4579467773438,-0.019073486328125,0.2212524265050888,0.25177001953125
1711460722.732585,-13.980464935302734,-25.335777282714844,978.4494018554688,-0.12969970703125,0.0495910607278347,0.007629394065588713
1711460722.7427902,-13.980464935302734,-25.335777282714844,978.4494018554688,-0.12969970703125,0.0495910607278347,0.007629394065588713
